idxUp,idxLow,midUp,midLow,ringUp,ringLow,thumb,pinky,ax,ay,az,gx,gy,gz,label
0.0,0.0,160.0,101.0,125.0,72.0,0.0,132.0,-0.08,0.85,0.52,-4.0,4.0,0.0,kha
0.0,0.0,159.0,96.0,114.0,68.0,0.0,127.0,-0.08,0.86,0.53,-2.0,2.0,0.0,kha
0.0,0.0,156.0,95.0,102.0,65.0,0.0,121.0,-0.08,0.85,0.53,2.0,0.0,0.0,kha
0.0,0.0,154.0,93.0,95.0,62.0,0.0,114.0,-0.07,0.87,0.52,4.0,-1.0,0.0,kha
0.0,0.0,151.0,91.0,86.0,58.0,0.0,107.0,-0.06,0.87,0.51,2.0,-4.0,-1.0,kha
0.0,0.0,149.0,90.0,91.0,54.0,0.0,102.0,-0.06,0.87,0.5,4.0,-6.0,0.0,kha
0.0,0.0,147.0,88.0,83.0,48.0,0.0,92.0,-0.05,0.88,0.5,4.0,-9.0,-2.0,kha
0.0,0.0,145.0,87.0,74.0,43.0,0.0,85.0,-0.06,0.88,0.5,4.0,-10.0,-2.0,kha
0.0,0.0,143.0,87.0,63.0,39.0,0.0,77.0,-0.06,0.88,0.49,4.0,-11.0,-3.0,kha
0.0,0.0,141.0,86.0,53.0,35.0,0.0,72.0,-0.06,0.88,0.49,3.0,-12.0,-4.0,kha
0.0,0.0,140.0,85.0,49.0,34.0,0.0,70.0,-0.05,0.88,0.48,0.0,-10.0,-6.0,kha
0.0,0.0,140.0,87.0,47.0,34.0,0.0,69.0,-0.04,0.88,0.48,-2.0,-9.0,-7.0,kha
0.0,0.0,141.0,87.0,49.0,31.0,0.0,69.0,-0.04,0.88,0.48,-3.0,-9.0,-7.0,kha
0.0,0.0,141.0,85.0,49.0,29.0,0.0,67.0,-0.05,0.88,0.49,-3.0,-7.0,-7.0,kha
0.0,0.0,140.0,85.0,44.0,28.0,0.0,67.0,-0.07,0.88,0.5,-3.0,-6.0,-6.0,kha
0.0,0.0,139.0,85.0,44.0,26.0,0.0,65.0,-0.08,0.88,0.5,-3.0,-5.0,-4.0,kha
0.0,0.0,140.0,85.0,42.0,28.0,0.0,63.0,-0.08,0.88,0.5,-2.0,-3.0,-1.0,kha
0.0,0.0,140.0,85.0,38.0,26.0,0.0,67.0,-0.08,0.88,0.49,-4.0,-2.0,1.0,kha
0.0,0.0,140.0,84.0,40.0,26.0,0.0,69.0,-0.07,0.88,0.48,-6.0,0.0,4.0,kha
0.0,0.0,140.0,84.0,42.0,25.0,0.0,72.0,-0.07,0.86,0.48,-9.0,2.0,6.0,kha
0.0,0.0,140.0,84.0,47.0,25.0,0.0,70.0,-0.07,0.86,0.5,-10.0,1.0,8.0,kha
0.0,0.0,140.0,84.0,47.0,24.0,0.0,70.0,-0.07,0.86,0.52,-11.0,1.0,11.0,kha
0.0,0.0,142.0,84.0,47.0,25.0,0.0,70.0,-0.06,0.86,0.53,-11.0,1.0,12.0,kha
0.0,0.0,142.0,85.0,47.0,25.0,0.0,70.0,-0.05,0.86,0.54,-11.0,0.0,14.0,kha
0.0,0.0,142.0,85.0,53.0,25.0,0.0,69.0,-0.03,0.86,0.55,-11.0,1.0,14.0,kha
0.0,0.0,142.0,85.0,53.0,26.0,0.0,69.0,-0.02,0.86,0.56,-10.0,2.0,14.0,kha
0.0,0.0,141.0,85.0,49.0,26.0,0.0,70.0,-0.0,0.85,0.57,-10.0,2.0,13.0,kha
0.0,0.0,141.0,85.0,49.0,25.0,0.0,67.0,0.01,0.85,0.58,-10.0,2.0,11.0,kha
0.0,0.0,141.0,85.0,53.0,25.0,0.0,65.0,0.01,0.84,0.61,-7.0,2.0,9.0,kha
0.0,0.0,141.0,85.0,51.0,26.0,0.0,63.0,0.03,0.85,0.61,-5.0,2.0,7.0,kha
0.0,0.0,141.0,86.0,47.0,28.0,0.0,63.0,0.03,0.85,0.61,-3.0,6.0,5.0,kha
0.0,0.0,141.0,86.0,45.0,29.0,0.0,63.0,0.03,0.85,0.6,0.0,9.0,2.0,kha
0.0,0.0,139.0,85.0,44.0,29.0,0.0,62.0,0.03,0.85,0.59,-1.0,9.0,0.0,kha
0.0,0.0,139.0,85.0,44.0,29.0,0.0,62.0,0.03,0.84,0.59,-2.0,11.0,-2.0,kha
0.0,0.0,139.0,86.0,42.0,28.0,0.0,62.0,0.02,0.84,0.58,0.0,13.0,-4.0,kha
0.0,0.0,139.0,86.0,40.0,28.0,0.0,69.0,0.02,0.84,0.58,-1.0,11.0,-6.0,kha
0.0,0.0,139.0,86.0,44.0,28.0,0.0,69.0,0.0,0.84,0.57,0.0,11.0,-7.0,kha
0.0,0.0,139.0,85.0,45.0,28.0,0.0,70.0,-0.0,0.84,0.57,1.0,9.0,-8.0,kha
0.0,0.0,138.0,85.0,44.0,28.0,0.0,69.0,-0.01,0.85,0.57,1.0,9.0,-9.0,kha
0.0,0.0,138.0,85.0,45.0,28.0,0.0,70.0,-0.03,0.85,0.57,1.0,8.0,-9.0,kha
0.0,0.0,138.0,85.0,47.0,26.0,0.0,70.0,-0.04,0.85,0.56,2.0,4.0,-9.0,kha
0.0,0.0,138.0,85.0,47.0,26.0,0.0,70.0,-0.04,0.85,0.55,0.0,1.0,-9.0,kha
0.0,0.0,138.0,85.0,35.0,26.0,0.0,72.0,-0.05,0.85,0.55,2.0,2.0,-7.0,kha
0.0,0.0,139.0,85.0,37.0,26.0,0.0,74.0,-0.05,0.86,0.55,3.0,0.0,-7.0,kha
0.0,0.0,139.0,85.0,38.0,26.0,0.0,74.0,-0.04,0.86,0.54,3.0,-1.0,-6.0,kha
0.0,0.0,139.0,84.0,40.0,26.0,0.0,69.0,-0.05,0.86,0.54,3.0,1.0,-6.0,kha
0.0,0.0,139.0,84.0,40.0,28.0,0.0,67.0,-0.04,0.86,0.54,1.0,1.0,-6.0,kha
0.0,0.0,142.0,83.0,40.0,29.0,0.0,69.0,-0.05,0.86,0.54,1.0,3.0,-6.0,kha
0.0,0.0,142.0,83.0,38.0,29.0,0.0,67.0,-0.05,0.86,0.54,0.0,2.0,-5.0,kha
0.0,0.0,143.0,84.0,38.0,29.0,0.0,65.0,-0.06,0.86,0.54,0.0,3.0,-5.0,kha
0.0,0.0,143.0,83.0,37.0,29.0,0.0,65.0,-0.06,0.87,0.54,0.0,2.0,-4.0,kha
0.0,0.0,143.0,83.0,40.0,29.0,0.0,65.0,-0.06,0.86,0.54,0.0,2.0,-3.0,kha
0.0,0.0,143.0,83.0,56.0,29.0,0.0,67.0,-0.06,0.86,0.53,1.0,2.0,-3.0,kha
0.0,0.0,141.0,82.0,53.0,28.0,0.0,67.0,-0.06,0.86,0.52,1.0,1.0,-3.0,kha
0.0,0.0,141.0,82.0,49.0,29.0,0.0,69.0,-0.06,0.87,0.52,0.0,0.0,-2.0,kha
0.0,0.0,142.0,82.0,49.0,30.0,0.0,72.0,-0.06,0.87,0.51,0.0,0.0,-1.0,kha
0.0,0.0,141.0,82.0,49.0,29.0,0.0,74.0,-0.06,0.87,0.51,0.0,0.0,0.0,kha
0.0,0.0,140.0,82.0,51.0,29.0,0.0,69.0,-0.06,0.87,0.51,0.0,-1.0,1.0,kha
0.0,0.0,139.0,82.0,53.0,29.0,0.0,69.0,-0.05,0.87,0.51,0.0,0.0,1.0,kha
0.0,0.0,139.0,82.0,51.0,29.0,0.0,69.0,-0.05,0.87,0.51,0.0,0.0,2.0,kha
0.0,0.0,140.0,83.0,53.0,30.0,0.0,70.0,-0.05,0.87,0.51,-1.0,0.0,2.0,kha
0.0,0.0,141.0,83.0,49.0,31.0,0.0,69.0,-0.04,0.87,0.51,-2.0,0.0,2.0,kha
0.0,0.0,140.0,83.0,47.0,30.0,0.0,69.0,-0.04,0.87,0.51,-2.0,0.0,2.0,kha
0.0,0.0,140.0,83.0,47.0,30.0,0.0,67.0,-0.04,0.87,0.52,-2.0,1.0,2.0,kha
0.0,0.0,141.0,83.0,45.0,30.0,0.0,65.0,-0.03,0.87,0.52,-2.0,1.0,2.0,kha
0.0,0.0,140.0,83.0,49.0,30.0,0.0,62.0,-0.03,0.87,0.51,-2.0,1.0,2.0,kha
0.0,0.0,141.0,83.0,45.0,30.0,0.0,60.0,-0.03,0.87,0.51,-1.0,1.0,2.0,kha
0.0,0.0,140.0,83.0,42.0,29.0,0.0,62.0,-0.03,0.88,0.51,-2.0,1.0,1.0,kha
0.0,0.0,141.0,83.0,42.0,28.0,0.0,62.0,-0.03,0.88,0.51,-1.0,1.0,1.0,kha
0.0,0.0,140.0,82.0,44.0,28.0,0.0,62.0,-0.02,0.88,0.5,-2.0,1.0,1.0,kha
0.0,0.0,139.0,82.0,37.0,28.0,0.0,62.0,-0.02,0.88,0.5,-2.0,1.0,1.0,kha
0.0,0.0,139.0,83.0,37.0,26.0,0.0,63.0,-0.02,0.88,0.5,-2.0,1.0,1.0,kha
0.0,0.0,139.0,83.0,38.0,26.0,0.0,63.0,-0.02,0.88,0.5,-2.0,1.0,1.0,kha
0.0,0.0,139.0,83.0,37.0,26.0,0.0,63.0,-0.02,0.88,0.5,-1.0,1.0,1.0,kha
0.0,0.0,138.0,83.0,38.0,26.0,0.0,62.0,-0.02,0.88,0.5,-2.0,1.0,1.0,kha
0.0,0.0,139.0,83.0,38.0,25.0,0.0,62.0,-0.02,0.88,0.5,-2.0,1.0,2.0,kha
0.0,0.0,139.0,83.0,40.0,25.0,0.0,62.0,-0.02,0.88,0.5,-2.0,1.0,2.0,kha
0.0,0.0,138.0,83.0,42.0,25.0,0.0,62.0,-0.01,0.88,0.5,-2.0,1.0,2.0,kha
0.0,0.0,139.0,83.0,44.0,25.0,0.0,60.0,-0.01,0.88,0.5,-3.0,1.0,1.0,kha
0.0,0.0,138.0,83.0,40.0,26.0,0.0,60.0,-0.01,0.88,0.5,-2.0,1.0,1.0,kha
0.0,0.0,139.0,83.0,47.0,26.0,0.0,60.0,-0.01,0.87,0.51,-3.0,2.0,1.0,kha
0.0,0.0,139.0,83.0,51.0,25.0,0.0,60.0,-0.01,0.88,0.51,-2.0,2.0,1.0,kha
0.0,0.0,139.0,83.0,68.0,25.0,0.0,60.0,-0.01,0.88,0.51,-3.0,2.0,1.0,kha
0.0,0.0,139.0,83.0,72.0,25.0,0.0,63.0,-0.0,0.88,0.51,-3.0,2.0,1.0,kha
0.0,0.0,139.0,83.0,70.0,24.0,0.0,62.0,-0.0,0.87,0.51,-3.0,2.0,1.0,kha
0.0,0.0,139.0,83.0,68.0,25.0,0.0,65.0,-0.0,0.87,0.51,-3.0,2.0,0.0,kha
0.0,0.0,139.0,83.0,68.0,25.0,0.0,65.0,-0.0,0.87,0.51,-2.0,2.0,0.0,kha
0.0,0.0,139.0,83.0,68.0,22.0,0.0,65.0,-0.0,0.87,0.51,-3.0,2.0,0.0,kha
0.0,0.0,139.0,83.0,63.0,25.0,0.0,67.0,-0.0,0.87,0.51,-3.0,2.0,0.0,kha
0.0,0.0,138.0,83.0,67.0,25.0,0.0,67.0,-0.0,0.87,0.51,-3.0,2.0,0.0,kha
0.0,0.0,138.0,83.0,68.0,24.0,0.0,65.0,-0.0,0.87,0.51,-2.0,2.0,1.0,kha
0.0,0.0,138.0,83.0,67.0,24.0,0.0,67.0,-0.0,0.87,0.51,-2.0,2.0,0.0,kha
0.0,0.0,138.0,83.0,49.0,24.0,0.0,67.0,-0.0,0.87,0.52,-2.0,2.0,1.0,kha
0.0,0.0,138.0,84.0,47.0,25.0,0.0,65.0,-0.01,0.87,0.52,-2.0,2.0,1.0,kha
0.0,0.0,138.0,83.0,51.0,25.0,0.0,67.0,-0.0,0.87,0.52,-1.0,2.0,1.0,kha
0.0,0.0,137.0,83.0,51.0,25.0,0.0,62.0,-0.0,0.87,0.52,-1.0,2.0,1.0,kha
0.0,0.0,137.0,83.0,51.0,26.0,0.0,63.0,-0.0,0.87,0.52,-2.0,2.0,1.0,kha
0.0,0.0,138.0,83.0,49.0,28.0,0.0,63.0,-0.0,0.87,0.53,-2.0,2.0,0.0,kha
0.0,0.0,138.0,83.0,53.0,28.0,0.0,63.0,-0.0,0.87,0.53,-2.0,2.0,0.0,kha
0.0,0.0,139.0,83.0,47.0,29.0,0.0,62.0,-0.0,0.87,0.53,-1.0,2.0,0.0,kha
0.0,0.0,140.0,83.0,45.0,29.0,0.0,67.0,0.0,0.87,0.53,-1.0,2.0,1.0,kha
0.0,0.0,139.0,83.0,45.0,29.0,0.0,65.0,0.01,0.87,0.53,-2.0,2.0,1.0,kha
0.0,0.0,140.0,83.0,47.0,29.0,0.0,67.0,0.01,0.87,0.53,-2.0,2.0,0.0,kha
0.0,0.0,140.0,82.0,49.0,29.0,0.0,67.0,0.01,0.87,0.53,-2.0,2.0,0.0,kha
0.0,0.0,140.0,83.0,45.0,31.0,0.0,67.0,0.01,0.87,0.52,-2.0,2.0,0.0,kha
0.0,0.0,140.0,82.0,47.0,31.0,0.0,67.0,0.01,0.87,0.52,-2.0,2.0,0.0,kha
0.0,0.0,140.0,82.0,49.0,30.0,0.0,65.0,0.01,0.87,0.53,-2.0,2.0,0.0,kha
0.0,0.0,140.0,82.0,51.0,30.0,0.0,65.0,0.01,0.87,0.53,-1.0,2.0,1.0,kha
0.0,0.0,140.0,82.0,47.0,29.0,0.0,65.0,0.01,0.87,0.52,0.0,2.0,1.0,kha
0.0,0.0,139.0,83.0,47.0,28.0,0.0,67.0,0.02,0.87,0.52,-1.0,2.0,1.0,kha
0.0,0.0,138.0,83.0,51.0,28.0,0.0,62.0,0.02,0.87,0.52,-1.0,2.0,0.0,kha
0.0,0.0,139.0,83.0,51.0,26.0,0.0,62.0,0.02,0.87,0.53,0.0,2.0,0.0,kha
0.0,0.0,139.0,83.0,49.0,26.0,0.0,55.0,0.01,0.87,0.52,0.0,2.0,0.0,kha
0.0,0.0,139.0,83.0,49.0,26.0,0.0,55.0,0.02,0.87,0.52,0.0,2.0,0.0,kha
0.0,0.0,138.0,83.0,47.0,25.0,0.0,55.0,0.02,0.87,0.52,0.0,2.0,1.0,kha
0.0,0.0,138.0,83.0,44.0,25.0,0.0,55.0,0.02,0.87,0.52,0.0,2.0,1.0,kha
0.0,0.0,138.0,82.0,44.0,25.0,0.0,57.0,0.02,0.88,0.52,0.0,2.0,1.0,kha
0.0,0.0,137.0,83.0,44.0,24.0,0.0,60.0,0.02,0.88,0.51,-1.0,2.0,0.0,kha
0.0,0.0,137.0,83.0,44.0,24.0,0.0,60.0,0.02,0.88,0.51,-1.0,2.0,0.0,kha
0.0,0.0,137.0,82.0,47.0,22.0,0.0,58.0,0.02,0.88,0.51,-2.0,2.0,0.0,kha
0.0,0.0,138.0,82.0,44.0,22.0,0.0,60.0,0.03,0.88,0.52,-2.0,1.0,0.0,kha
0.0,0.0,138.0,83.0,38.0,22.0,0.0,60.0,0.02,0.88,0.51,-2.0,2.0,0.0,kha
0.0,0.0,137.0,82.0,37.0,28.0,0.0,65.0,0.03,0.88,0.51,-2.0,2.0,0.0,kha
0.0,0.0,137.0,82.0,37.0,25.0,0.0,65.0,0.03,0.88,0.51,-2.0,2.0,0.0,kha
0.0,0.0,137.0,83.0,38.0,25.0,0.0,67.0,0.03,0.88,0.51,-3.0,3.0,0.0,kha
0.0,0.0,137.0,83.0,40.0,25.0,0.0,67.0,0.03,0.88,0.51,-3.0,3.0,0.0,kha
0.0,0.0,137.0,83.0,67.0,25.0,0.0,65.0,0.03,0.88,0.51,-3.0,3.0,-1.0,kha
0.0,0.0,138.0,84.0,65.0,26.0,0.0,67.0,0.03,0.88,0.51,-2.0,3.0,0.0,kha
0.0,0.0,138.0,83.0,67.0,26.0,0.0,65.0,0.03,0.88,0.51,-2.0,4.0,0.0,kha
0.0,0.0,138.0,83.0,65.0,25.0,0.0,67.0,0.03,0.88,0.51,-2.0,3.0,0.0,kha
0.0,0.0,138.0,80.0,65.0,26.0,0.0,67.0,0.03,0.88,0.51,-2.0,3.0,0.0,kha
0.0,0.0,137.0,80.0,74.0,28.0,0.0,65.0,0.03,0.88,0.51,-2.0,3.0,0.0,kha
0.0,0.0,137.0,80.0,72.0,22.0,0.0,65.0,0.03,0.88,0.51,-2.0,3.0,0.0,kha
0.0,0.0,137.0,81.0,75.0,22.0,0.0,65.0,0.03,0.88,0.51,-2.0,3.0,0.0,kha
0.0,0.0,137.0,81.0,75.0,22.0,0.0,67.0,0.02,0.87,0.52,-2.0,2.0,0.0,kha
0.0,0.0,137.0,80.0,74.0,22.0,0.0,65.0,0.02,0.87,0.52,-2.0,2.0,0.0,kha
0.0,0.0,137.0,80.0,49.0,22.0,0.0,65.0,0.03,0.87,0.51,-2.0,2.0,0.0,kha
0.0,0.0,136.0,80.0,49.0,22.0,0.0,60.0,0.02,0.88,0.51,-1.0,3.0,0.0,kha
0.0,0.0,136.0,81.0,51.0,21.0,0.0,60.0,0.02,0.87,0.52,-2.0,2.0,-1.0,kha
0.0,0.0,137.0,82.0,53.0,22.0,0.0,63.0,0.02,0.87,0.52,0.0,2.0,-1.0,kha
0.0,0.0,137.0,83.0,54.0,22.0,0.0,62.0,0.02,0.87,0.51,0.0,2.0,-1.0,kha
0.0,0.0,137.0,84.0,53.0,22.0,0.0,67.0,0.02,0.87,0.51,0.0,3.0,-1.0,kha
0.0,0.0,137.0,84.0,54.0,22.0,0.0,65.0,0.02,0.88,0.52,0.0,3.0,-2.0,kha
0.0,0.0,137.0,83.0,53.0,24.0,0.0,67.0,0.02,0.87,0.52,0.0,2.0,-2.0,kha
0.0,0.0,138.0,83.0,53.0,24.0,0.0,63.0,0.01,0.88,0.52,1.0,3.0,-2.0,kha
0.0,0.0,138.0,84.0,54.0,24.0,0.0,67.0,0.02,0.88,0.51,2.0,2.0,-1.0,kha
0.0,0.0,138.0,86.0,54.0,25.0,0.0,67.0,0.02,0.88,0.51,2.0,2.0,0.0,kha
0.0,0.0,139.0,86.0,53.0,25.0,0.0,69.0,0.02,0.88,0.51,2.0,2.0,0.0,kha
0.0,0.0,139.0,86.0,51.0,25.0,0.0,67.0,0.02,0.88,0.51,3.0,1.0,0.0,kha
0.0,0.0,138.0,87.0,51.0,26.0,0.0,69.0,0.02,0.89,0.51,3.0,1.0,0.0,kha
0.0,0.0,138.0,86.0,49.0,26.0,0.0,69.0,0.02,0.89,0.51,3.0,1.0,0.0,kha
0.0,0.0,139.0,87.0,47.0,28.0,0.0,67.0,0.02,0.89,0.51,2.0,1.0,0.0,kha
0.0,0.0,139.0,87.0,47.0,28.0,0.0,67.0,0.02,0.89,0.51,3.0,1.0,0.0,kha
0.0,0.0,139.0,88.0,45.0,26.0,0.0,62.0,0.02,0.89,0.5,3.0,2.0,0.0,kha
0.0,0.0,138.0,87.0,47.0,26.0,0.0,60.0,0.02,0.89,0.49,2.0,1.0,0.0,kha
0.0,0.0,139.0,87.0,47.0,26.0,0.0,60.0,0.02,0.89,0.5,1.0,2.0,0.0,kha
0.0,0.0,138.0,85.0,49.0,25.0,0.0,60.0,0.02,0.89,0.5,1.0,1.0,0.0,kha
0.0,0.0,138.0,85.0,45.0,26.0,0.0,58.0,0.01,0.89,0.5,0.0,2.0,0.0,kha
0.0,0.0,137.0,85.0,45.0,25.0,0.0,58.0,0.02,0.89,0.49,0.0,2.0,0.0,kha
0.0,0.0,137.0,83.0,45.0,25.0,0.0,55.0,0.02,0.89,0.49,0.0,2.0,0.0,kha
0.0,0.0,137.0,83.0,44.0,24.0,0.0,55.0,0.02,0.89,0.49,0.0,2.0,0.0,kha
0.0,0.0,136.0,83.0,47.0,24.0,0.0,55.0,0.02,0.89,0.49,0.0,2.0,0.0,kha
0.0,0.0,136.0,83.0,49.0,25.0,0.0,55.0,0.01,0.89,0.49,0.0,2.0,-1.0,kha
0.0,0.0,136.0,82.0,49.0,25.0,0.0,58.0,0.02,0.89,0.49,0.0,2.0,-1.0,kha
0.0,0.0,137.0,83.0,47.0,25.0,0.0,60.0,0.02,0.89,0.48,-1.0,2.0,-2.0,kha
0.0,0.0,136.0,83.0,44.0,26.0,0.0,58.0,0.01,0.89,0.49,0.0,1.0,-2.0,kha
0.0,0.0,136.0,82.0,44.0,26.0,0.0,58.0,0.01,0.89,0.49,0.0,1.0,-2.0,kha
0.0,0.0,135.0,82.0,47.0,25.0,0.0,58.0,0.02,0.89,0.48,1.0,1.0,-1.0,kha
0.0,0.0,136.0,82.0,45.0,26.0,0.0,57.0,0.02,0.89,0.48,0.0,2.0,-1.0,kha
0.0,0.0,136.0,83.0,44.0,28.0,0.0,58.0,0.02,0.89,0.49,0.0,1.0,-1.0,kha
0.0,0.0,136.0,84.0,45.0,28.0,0.0,63.0,0.02,0.9,0.49,2.0,1.0,0.0,kha
0.0,0.0,136.0,83.0,45.0,26.0,0.0,63.0,0.01,0.9,0.48,2.0,1.0,0.0,kha
0.0,0.0,136.0,83.0,44.0,26.0,0.0,63.0,0.02,0.9,0.48,1.0,1.0,0.0,kha
0.0,0.0,136.0,83.0,40.0,26.0,0.0,63.0,0.02,0.9,0.48,0.0,1.0,0.0,kha
0.0,0.0,138.0,84.0,42.0,26.0,0.0,63.0,0.02,0.9,0.48,0.0,1.0,0.0,kha
0.0,0.0,138.0,84.0,42.0,25.0,0.0,63.0,0.02,0.9,0.48,0.0,1.0,0.0,kha
0.0,0.0,139.0,84.0,44.0,25.0,0.0,65.0,0.02,0.89,0.47,0.0,2.0,0.0,kha
0.0,0.0,138.0,83.0,44.0,25.0,0.0,63.0,0.02,0.89,0.47,-2.0,2.0,0.0,kha
0.0,0.0,138.0,83.0,45.0,24.0,0.0,63.0,0.02,0.89,0.48,-3.0,2.0,-2.0,kha
0.0,0.0,139.0,82.0,45.0,24.0,0.0,63.0,0.02,0.89,0.48,-3.0,2.0,-2.0,kha
0.0,0.0,139.0,82.0,45.0,22.0,0.0,62.0,0.01,0.89,0.48,-4.0,3.0,-2.0,kha
0.0,0.0,139.0,83.0,42.0,22.0,0.0,62.0,0.02,0.89,0.47,-4.0,2.0,-2.0,kha
0.0,0.0,138.0,83.0,44.0,22.0,0.0,63.0,0.02,0.89,0.48,-4.0,3.0,-3.0,kha
0.0,0.0,139.0,82.0,44.0,25.0,0.0,65.0,0.01,0.88,0.49,-4.0,2.0,-3.0,kha
0.0,0.0,137.0,82.0,44.0,28.0,0.0,63.0,0.01,0.88,0.49,-3.0,3.0,-3.0,kha
0.0,0.0,137.0,82.0,45.0,28.0,0.0,65.0,0.01,0.88,0.48,-2.0,2.0,-3.0,kha
0.0,0.0,138.0,82.0,45.0,29.0,0.0,63.0,0.01,0.89,0.49,0.0,2.0,-2.0,kha
0.0,0.0,139.0,82.0,47.0,29.0,0.0,67.0,0.0,0.89,0.49,1.0,1.0,-1.0,kha
0.0,0.0,139.0,82.0,47.0,29.0,0.0,69.0,0.0,0.88,0.49,3.0,0.0,0.0,kha
0.0,0.0,139.0,83.0,45.0,29.0,0.0,67.0,0.0,0.88,0.48,4.0,0.0,0.0,kha
0.0,0.0,139.0,83.0,49.0,29.0,0.0,67.0,0.01,0.89,0.48,4.0,1.0,0.0,kha
0.0,0.0,139.0,83.0,51.0,29.0,0.0,67.0,0.0,0.89,0.48,4.0,1.0,0.0,kha
0.0,0.0,140.0,83.0,51.0,29.0,0.0,62.0,0.0,0.89,0.48,4.0,0.0,0.0,kha
0.0,4.0,139.0,83.0,61.0,26.0,0.0,60.0,-0.0,0.89,0.48,5.0,1.0,1.0,kha
0.0,0.0,139.0,83.0,61.0,24.0,0.0,63.0,0.01,0.89,0.47,4.0,0.0,1.0,kha
0.0,1.0,140.0,83.0,58.0,25.0,0.0,62.0,0.01,0.89,0.47,3.0,1.0,1.0,kha
0.0,0.0,138.0,83.0,56.0,26.0,0.0,62.0,0.01,0.89,0.47,1.0,1.0,1.0,kha
0.0,0.0,138.0,83.0,54.0,26.0,0.0,62.0,0.01,0.89,0.47,1.0,2.0,0.0,kha
0.0,0.0,138.0,83.0,51.0,26.0,0.0,60.0,0.01,0.9,0.46,0.0,2.0,0.0,kha
0.0,0.0,138.0,83.0,45.0,26.0,0.0,60.0,0.01,0.9,0.46,-1.0,3.0,0.0,kha
0.0,0.0,137.0,83.0,45.0,25.0,0.0,60.0,0.01,0.9,0.47,-3.0,2.0,0.0,kha
0.0,0.0,137.0,83.0,45.0,26.0,0.0,62.0,0.01,0.9,0.47,-3.0,2.0,0.0,kha
0.0,0.0,137.0,82.0,45.0,26.0,0.0,63.0,0.01,0.9,0.47,-3.0,2.0,0.0,kha
0.0,0.0,136.0,82.0,37.0,26.0,0.0,60.0,0.01,0.9,0.47,-2.0,2.0,0.0,kha
0.0,0.0,135.0,82.0,37.0,26.0,0.0,58.0,0.01,0.9,0.47,-3.0,2.0,0.0,kha
0.0,0.0,135.0,82.0,37.0,26.0,0.0,58.0,0.01,0.9,0.47,-3.0,2.0,0.0,kha
0.0,0.0,135.0,82.0,37.0,24.0,0.0,58.0,0.01,0.9,0.47,-1.0,2.0,0.0,kha
0.0,0.0,137.0,83.0,35.0,24.0,0.0,55.0,0.01,0.9,0.47,-2.0,1.0,0.0,kha
0.0,0.0,138.0,83.0,37.0,24.0,0.0,57.0,0.02,0.9,0.47,-2.0,2.0,0.0,kha
0.0,0.0,139.0,83.0,44.0,24.0,0.0,57.0,0.01,0.9,0.47,-2.0,2.0,0.0,kha
0.0,0.0,139.0,83.0,40.0,25.0,0.0,57.0,0.01,0.9,0.47,0.0,1.0,0.0,kha
0.0,0.0,139.0,83.0,40.0,25.0,0.0,57.0,0.01,0.9,0.47,1.0,2.0,1.0,kha
0.0,0.0,139.0,83.0,42.0,25.0,0.0,58.0,0.02,0.9,0.46,0.0,1.0,1.0,kha
0.0,0.0,139.0,83.0,42.0,24.0,0.0,62.0,0.02,0.9,0.46,0.0,1.0,0.0,kha
0.0,0.0,140.0,83.0,42.0,25.0,0.0,62.0,0.02,0.9,0.46,0.0,1.0,0.0,kha
0.0,0.0,140.0,83.0,42.0,25.0,0.0,62.0,0.01,0.9,0.47,2.0,1.0,0.0,kha
0.0,0.0,140.0,84.0,42.0,25.0,0.0,62.0,0.01,0.89,0.46,1.0,1.0,0.0,kha
0.0,0.0,139.0,84.0,45.0,25.0,0.0,70.0,0.02,0.9,0.46,2.0,1.0,0.0,kha
0.0,0.0,137.0,85.0,58.0,26.0,6.0,70.0,0.02,0.9,0.46,1.0,0.0,0.0,kha
0.0,0.0,137.0,85.0,61.0,26.0,8.0,69.0,0.01,0.89,0.46,1.0,0.0,0.0,kha
0.0,0.0,137.0,85.0,65.0,25.0,8.0,69.0,0.02,0.9,0.46,1.0,1.0,0.0,kha
0.0,0.0,137.0,84.0,65.0,26.0,1.0,69.0,0.02,0.9,0.45,0.0,1.0,-2.0,kha
0.0,0.0,137.0,84.0,83.0,26.0,0.0,67.0,0.02,0.91,0.45,-2.0,2.0,-2.0,kha
0.0,0.0,137.0,84.0,83.0,26.0,0.0,69.0,0.01,0.9,0.46,-2.0,2.0,-2.0,kha
0.0,0.0,137.0,84.0,84.0,25.0,0.0,69.0,0.01,0.9,0.46,-2.0,2.0,0.0,kha
0.0,0.0,137.0,84.0,83.0,28.0,0.0,69.0,0.02,0.91,0.45,-3.0,3.0,0.0,kha
0.0,0.0,136.0,83.0,83.0,26.0,0.0,67.0,0.02,0.9,0.45,-3.0,3.0,0.0,kha
0.0,0.0,137.0,83.0,86.0,26.0,0.0,62.0,0.02,0.91,0.46,-4.0,3.0,-1.0,kha
0.0,0.0,137.0,81.0,70.0,25.0,0.0,60.0,0.01,0.9,0.46,-3.0,3.0,0.0,kha
0.0,0.0,137.0,81.0,65.0,25.0,0.0,62.0,0.01,0.91,0.46,-2.0,3.0,0.0,kha
0.0,0.0,137.0,80.0,67.0,25.0,0.0,63.0,0.01,0.9,0.46,-2.0,3.0,0.0,kha
0.0,0.0,138.0,79.0,65.0,25.0,0.0,62.0,0.01,0.9,0.46,-2.0,3.0,0.0,kha
0.0,0.0,138.0,79.0,47.0,25.0,0.0,63.0,0.01,0.9,0.47,0.0,3.0,0.0,kha
0.0,0.0,138.0,79.0,47.0,26.0,0.0,63.0,0.01,0.89,0.47,0.0,3.0,0.0,kha
0.0,0.0,138.0,79.0,47.0,25.0,0.0,65.0,0.01,0.9,0.46,0.0,2.0,0.0,kha
0.0,0.0,138.0,78.0,47.0,24.0,0.0,63.0,0.01,0.89,0.46,0.0,2.0,0.0,kha
0.0,0.0,138.0,78.0,44.0,24.0,0.0,65.0,0.01,0.9,0.47,0.0,2.0,0.0,kha
0.0,0.0,137.0,78.0,38.0,24.0,0.0,67.0,0.01,0.9,0.46,0.0,1.0,0.0,kha
0.0,0.0,137.0,78.0,44.0,24.0,0.0,69.0,0.01,0.9,0.46,0.0,0.0,0.0,kha
0.0,0.0,137.0,78.0,40.0,24.0,0.0,70.0,0.02,0.9,0.45,0.0,0.0,0.0,kha
0.0,0.0,137.0,78.0,38.0,25.0,0.0,69.0,0.02,0.9,0.45,0.0,0.0,0.0,kha
0.0,0.0,135.0,80.0,38.0,25.0,0.0,70.0,0.02,0.9,0.46,0.0,-2.0,0.0,kha
0.0,0.0,136.0,80.0,35.0,25.0,0.0,70.0,0.02,0.9,0.45,1.0,-2.0,0.0,kha
0.0,0.0,137.0,80.0,35.0,24.0,0.0,67.0,0.02,0.9,0.45,1.0,0.0,0.0,kha
0.0,0.0,134.0,80.0,30.0,24.0,0.0,65.0,0.03,0.9,0.45,0.0,1.0,0.0,kha
0.0,0.0,134.0,81.0,33.0,25.0,0.0,65.0,0.02,0.9,0.45,0.0,1.0,0.0,kha
0.0,0.0,135.0,81.0,38.0,25.0,0.0,65.0,0.02,0.9,0.45,-1.0,2.0,0.0,kha
0.0,0.0,135.0,81.0,33.0,24.0,13.0,63.0,0.02,0.9,0.45,0.0,3.0,0.0,kha
0.0,0.0,136.0,81.0,33.0,24.0,15.0,63.0,0.02,0.9,0.45,-1.0,3.0,0.0,kha
0.0,0.0,135.0,80.0,37.0,24.0,15.0,62.0,0.02,0.9,0.45,-2.0,3.0,0.0,kha
0.0,0.0,136.0,80.0,35.0,22.0,18.0,60.0,0.02,0.9,0.46,-2.0,3.0,-1.0,kha
0.0,0.0,136.0,80.0,35.0,22.0,18.0,60.0,0.02,0.9,0.46,-1.0,4.0,-1.0,kha
0.0,0.0,136.0,80.0,37.0,21.0,20.0,60.0,0.02,0.9,0.45,-2.0,5.0,-2.0,kha
0.0,0.0,135.0,80.0,35.0,22.0,18.0,60.0,0.02,0.9,0.45,-2.0,4.0,-2.0,kha
0.0,0.0,138.0,79.0,38.0,22.0,18.0,62.0,0.01,0.9,0.46,-2.0,3.0,-2.0,kha
0.0,0.0,137.0,79.0,37.0,25.0,25.0,62.0,0.01,0.9,0.46,0.0,2.0,-2.0,kha
0.0,0.0,137.0,79.0,37.0,24.0,22.0,62.0,0.01,0.9,0.45,0.0,2.0,-2.0,kha
0.0,0.0,137.0,79.0,42.0,24.0,5.0,62.0,0.01,0.9,0.45,0.0,3.0,-2.0,kha
0.0,0.0,137.0,79.0,42.0,25.0,0.0,62.0,0.01,0.9,0.45,-2.0,3.0,-2.0,kha
0.0,0.0,137.0,79.0,40.0,25.0,0.0,62.0,0.0,0.9,0.46,0.0,3.0,-2.0,kha
0.0,0.0,135.0,79.0,42.0,25.0,0.0,65.0,0.0,0.9,0.45,0.0,3.0,-2.0,kha
0.0,0.0,135.0,80.0,42.0,25.0,0.0,63.0,0.0,0.9,0.45,-1.0,3.0,-2.0,kha
0.0,0.0,135.0,80.0,44.0,25.0,0.0,62.0,0.01,0.9,0.45,-1.0,3.0,-1.0,kha
0.0,0.0,136.0,80.0,47.0,25.0,0.0,63.0,0.0,0.9,0.45,-2.0,2.0,-1.0,kha
0.0,0.0,136.0,80.0,49.0,25.0,0.0,63.0,0.0,0.9,0.46,-1.0,2.0,-1.0,kha
0.0,0.0,136.0,80.0,49.0,22.0,0.0,62.0,0.01,0.9,0.45,-1.0,2.0,-1.0,kha
0.0,0.0,136.0,80.0,51.0,25.0,0.0,62.0,0.01,0.9,0.45,-2.0,2.0,-1.0,kha
0.0,0.0,136.0,80.0,51.0,24.0,0.0,62.0,0.01,0.91,0.45,-2.0,1.0,-1.0,kha
0.0,0.0,136.0,80.0,53.0,24.0,0.0,60.0,0.01,0.91,0.45,-1.0,2.0,-1.0,kha
0.0,0.0,136.0,80.0,49.0,24.0,0.0,60.0,0.01,0.91,0.45,0.0,1.0,0.0,kha
0.0,0.0,137.0,80.0,49.0,24.0,0.0,58.0,0.01,0.91,0.44,-2.0,2.0,0.0,kha
0.0,0.0,137.0,80.0,51.0,24.0,0.0,55.0,0.01,0.91,0.45,-2.0,2.0,-1.0,kha
0.0,0.0,137.0,80.0,49.0,22.0,0.0,57.0,0.01,0.91,0.45,-2.0,2.0,-1.0,kha
0.0,0.0,136.0,80.0,51.0,24.0,0.0,57.0,0.01,0.91,0.45,-1.0,2.0,-1.0,kha
0.0,0.0,137.0,80.0,49.0,24.0,0.0,57.0,0.01,0.91,0.44,-1.0,2.0,0.0,kha
0.0,0.0,136.0,79.0,47.0,24.0,0.0,55.0,0.01,0.91,0.45,-2.0,2.0,0.0,kha
0.0,0.0,136.0,78.0,42.0,22.0,0.0,57.0,0.01,0.9,0.45,-2.0,2.0,0.0,kha
0.0,0.0,136.0,78.0,47.0,22.0,0.0,57.0,0.01,0.91,0.45,-2.0,2.0,0.0,kha
0.0,0.0,135.0,78.0,47.0,22.0,0.0,58.0,0.01,0.91,0.45,-1.0,2.0,0.0,kha
0.0,0.0,135.0,79.0,49.0,22.0,0.0,60.0,0.01,0.91,0.44,-1.0,2.0,0.0,kha
0.0,0.0,135.0,79.0,49.0,22.0,0.0,58.0,0.01,0.91,0.44,-2.0,2.0,0.0,kha
0.0,0.0,135.0,78.0,47.0,22.0,0.0,65.0,0.01,0.91,0.45,-2.0,2.0,0.0,kha
0.0,0.0,135.0,78.0,47.0,22.0,0.0,65.0,0.01,0.91,0.45,-2.0,2.0,0.0,kha
0.0,0.0,135.0,78.0,45.0,21.0,0.0,63.0,0.01,0.91,0.44,-2.0,2.0,0.0,kha
0.0,0.0,134.0,79.0,44.0,21.0,0.0,69.0,0.01,0.91,0.44,-3.0,2.0,0.0,kha
0.0,0.0,134.0,80.0,45.0,22.0,0.0,69.0,0.02,0.91,0.45,-3.0,2.0,0.0,kha
0.0,0.0,135.0,80.0,49.0,22.0,0.0,69.0,0.01,0.9,0.45,-3.0,2.0,0.0,kha
0.0,0.0,135.0,80.0,45.0,22.0,0.0,70.0,0.01,0.9,0.45,-2.0,3.0,0.0,kha
0.0,0.0,137.0,80.0,45.0,22.0,0.0,70.0,0.01,0.9,0.44,-3.0,3.0,0.0,kha
0.0,0.0,137.0,80.0,44.0,24.0,0.0,69.0,0.01,0.9,0.45,-3.0,3.0,0.0,kha
0.0,0.0,136.0,80.0,44.0,22.0,0.0,69.0,0.01,0.9,0.45,-3.0,3.0,-1.0,kha
0.0,0.0,136.0,80.0,44.0,22.0,0.0,67.0,0.0,0.9,0.45,-2.0,2.0,0.0,kha
0.0,0.0,136.0,79.0,44.0,22.0,0.0,67.0,0.0,0.9,0.45,-2.0,3.0,0.0,kha
0.0,0.0,136.0,79.0,42.0,22.0,0.0,69.0,0.01,0.9,0.45,-2.0,3.0,0.0,kha
0.0,0.0,136.0,80.0,44.0,22.0,0.0,62.0,0.01,0.9,0.45,-2.0,2.0,0.0,kha
0.0,0.0,136.0,80.0,44.0,22.0,0.0,62.0,0.0,0.9,0.45,-2.0,2.0,0.0,kha
0.0,0.0,136.0,79.0,45.0,20.0,0.0,62.0,-0.0,0.9,0.45,-2.0,2.0,0.0,kha
0.0,0.0,136.0,79.0,45.0,20.0,0.0,62.0,0.0,0.9,0.45,-2.0,2.0,0.0,kha
0.0,0.0,136.0,79.0,45.0,17.0,0.0,63.0,0.01,0.9,0.45,-3.0,2.0,0.0,kha
0.0,0.0,136.0,79.0,45.0,17.0,0.0,62.0,0.0,0.9,0.45,-2.0,2.0,0.0,kha
0.0,0.0,137.0,79.0,44.0,17.0,0.0,62.0,0.0,0.9,0.45,-2.0,2.0,0.0,kha
0.0,0.0,137.0,79.0,45.0,17.0,0.0,62.0,0.0,0.9,0.45,-2.0,2.0,0.0,kha
0.0,0.0,136.0,79.0,47.0,17.0,0.0,62.0,0.01,0.9,0.45,-2.0,2.0,0.0,kha
0.0,0.0,136.0,79.0,45.0,16.0,0.0,62.0,0.01,0.9,0.45,-2.0,2.0,-1.0,kha
0.0,0.0,136.0,78.0,47.0,16.0,0.0,62.0,0.01,0.9,0.46,-2.0,2.0,0.0,kha
0.0,0.0,136.0,78.0,47.0,12.0,0.0,63.0,0.0,0.9,0.45,-1.0,2.0,0.0,kha
0.0,0.0,136.0,79.0,42.0,15.0,0.0,62.0,0.01,0.9,0.45,-1.0,1.0,0.0,kha
0.0,0.0,136.0,79.0,44.0,14.0,0.0,63.0,0.02,0.9,0.45,-2.0,2.0,-1.0,kha
0.0,0.0,135.0,78.0,45.0,16.0,0.0,60.0,0.01,0.9,0.45,-2.0,1.0,-2.0,kha
0.0,0.0,135.0,78.0,47.0,17.0,0.0,60.0,0.01,0.91,0.45,-2.0,2.0,-1.0,kha
0.0,0.0,135.0,78.0,47.0,17.0,0.0,57.0,0.01,0.91,0.45,-2.0,2.0,0.0,kha
0.0,0.0,135.0,78.0,45.0,17.0,0.0,55.0,0.02,0.91,0.44,-2.0,1.0,0.0,kha
0.0,0.0,135.0,79.0,44.0,19.0,0.0,55.0,0.02,0.91,0.45,-2.0,1.0,0.0,kha
0.0,0.0,136.0,79.0,44.0,20.0,0.0,57.0,0.02,0.91,0.45,-2.0,1.0,0.0,kha
0.0,0.0,136.0,78.0,44.0,20.0,0.0,57.0,0.01,0.91,0.45,-1.0,1.0,0.0,kha
0.0,0.0,132.0,78.0,42.0,24.0,0.0,60.0,0.02,0.91,0.44,-1.0,1.0,0.0,kha
0.0,0.0,132.0,78.0,44.0,24.0,0.0,58.0,0.02,0.91,0.44,-2.0,1.0,0.0,kha
0.0,0.0,132.0,78.0,42.0,24.0,0.0,58.0,0.02,0.91,0.44,-2.0,1.0,0.0,kha
0.0,0.0,132.0,78.0,38.0,25.0,0.0,58.0,0.01,0.91,0.45,-1.0,1.0,0.0,kha
0.0,0.0,132.0,78.0,40.0,24.0,0.0,58.0,0.01,0.91,0.44,-1.0,1.0,0.0,kha
0.0,0.0,131.0,78.0,42.0,25.0,0.0,62.0,0.02,0.9,0.44,-1.0,1.0,0.0,kha
0.0,0.0,130.0,78.0,44.0,24.0,0.0,62.0,0.01,0.9,0.44,-2.0,2.0,-1.0,kha
0.0,0.0,130.0,78.0,45.0,22.0,0.0,63.0,0.01,0.9,0.44,-1.0,1.0,0.0,kha
0.0,0.0,130.0,78.0,42.0,21.0,0.0,60.0,0.01,0.9,0.44,-1.0,2.0,0.0,kha
0.0,0.0,130.0,78.0,42.0,21.0,0.0,62.0,0.01,0.9,0.44,-1.0,2.0,0.0,kha
0.0,0.0,133.0,78.0,45.0,21.0,0.0,57.0,0.02,0.9,0.43,-2.0,2.0,0.0,kha
0.0,0.0,133.0,78.0,44.0,21.0,0.0,58.0,0.02,0.9,0.44,-2.0,2.0,-1.0,kha
0.0,0.0,134.0,79.0,44.0,21.0,0.0,58.0,0.01,0.9,0.44,-2.0,2.0,-1.0,kha
0.0,0.0,133.0,79.0,44.0,20.0,0.0,58.0,0.01,0.9,0.44,-2.0,2.0,0.0,kha
0.0,0.0,134.0,78.0,42.0,20.0,0.0,60.0,0.02,0.91,0.44,-2.0,2.0,0.0,kha
0.0,0.0,135.0,79.0,38.0,20.0,1.0,60.0,0.02,0.91,0.44,-2.0,2.0,0.0,kha
0.0,0.0,135.0,79.0,35.0,21.0,3.0,60.0,0.02,0.9,0.45,-2.0,1.0,0.0,kha
0.0,0.0,136.0,80.0,35.0,22.0,5.0,69.0,0.01,0.91,0.45,-2.0,2.0,0.0,kha
0.0,0.0,136.0,80.0,35.0,22.0,8.0,69.0,0.02,0.91,0.44,-2.0,1.0,0.0,kha
0.0,0.0,136.0,80.0,38.0,22.0,8.0,70.0,0.02,0.9,0.44,-2.0,2.0,0.0,kha
0.0,0.0,137.0,80.0,37.0,22.0,6.0,72.0,0.02,0.9,0.45,-2.0,1.0,0.0,kha
0.0,0.0,136.0,80.0,38.0,24.0,6.0,72.0,0.02,0.91,0.45,-1.0,2.0,0.0,kha
0.0,0.0,136.0,81.0,42.0,25.0,6.0,70.0,0.02,0.91,0.44,-1.0,2.0,0.0,kha
0.0,0.0,135.0,81.0,42.0,25.0,6.0,72.0,0.02,0.91,0.44,-1.0,2.0,0.0,kha
0.0,0.0,135.0,81.0,45.0,24.0,3.0,70.0,0.02,0.91,0.44,-1.0,2.0,0.0,kha
0.0,0.0,135.0,80.0,47.0,24.0,1.0,70.0,0.02,0.9,0.45,-1.0,2.0,0.0,kha
0.0,0.0,135.0,80.0,53.0,24.0,1.0,70.0,0.02,0.91,0.45,0.0,2.0,0.0,kha
0.0,0.0,135.0,80.0,53.0,24.0,0.0,62.0,0.02,0.91,0.44,-1.0,2.0,0.0,kha
0.0,0.0,135.0,80.0,53.0,24.0,0.0,63.0,0.02,0.91,0.44,-2.0,3.0,0.0,kha
0.0,0.0,135.0,80.0,53.0,25.0,0.0,62.0,0.02,0.91,0.44,-2.0,3.0,-1.0,kha
0.0,0.0,135.0,80.0,63.0,25.0,0.0,60.0,0.01,0.91,0.45,0.0,3.0,-1.0,kha
0.0,0.0,135.0,79.0,63.0,22.0,0.0,60.0,0.01,0.91,0.44,-1.0,3.0,-1.0,kha
0.0,0.0,135.0,78.0,63.0,22.0,0.0,62.0,0.02,0.9,0.44,0.0,3.0,0.0,kha
0.0,0.0,136.0,78.0,65.0,22.0,0.0,60.0,0.02,0.9,0.44,-1.0,3.0,-1.0,kha
0.0,0.0,136.0,78.0,61.0,22.0,0.0,60.0,0.01,0.9,0.44,0.0,2.0,-1.0,kha
0.0,0.0,135.0,77.0,60.0,22.0,5.0,60.0,0.01,0.91,0.44,0.0,3.0,-1.0,kha
0.0,0.0,135.0,77.0,60.0,22.0,3.0,60.0,0.01,0.91,0.44,0.0,3.0,0.0,kha
0.0,0.0,134.0,77.0,61.0,22.0,1.0,60.0,0.02,0.91,0.44,0.0,3.0,0.0,kha
0.0,0.0,134.0,77.0,65.0,22.0,1.0,58.0,0.01,0.91,0.44,0.0,3.0,0.0,kha
0.0,0.0,134.0,77.0,61.0,22.0,3.0,58.0,0.01,0.91,0.44,0.0,2.0,0.0,kha
0.0,0.0,134.0,77.0,54.0,22.0,5.0,58.0,0.01,0.91,0.44,0.0,2.0,0.0,kha
0.0,0.0,134.0,77.0,56.0,24.0,5.0,60.0,0.02,0.91,0.44,-1.0,2.0,0.0,kha
0.0,0.0,133.0,77.0,56.0,24.0,3.0,58.0,0.02,0.91,0.44,-2.0,2.0,0.0,kha
0.0,0.0,134.0,78.0,42.0,24.0,3.0,58.0,0.02,0.91,0.44,-2.0,3.0,0.0,kha
0.0,0.0,133.0,78.0,44.0,22.0,5.0,58.0,0.01,0.91,0.44,-2.0,3.0,0.0,kha
0.0,0.0,136.0,79.0,44.0,22.0,0.0,60.0,0.02,0.91,0.44,-2.0,3.0,0.0,kha
0.0,0.0,136.0,79.0,45.0,22.0,0.0,53.0,0.02,0.91,0.44,-2.0,3.0,0.0,kha
0.0,0.0,137.0,79.0,47.0,25.0,0.0,55.0,0.02,0.91,0.44,-2.0,3.0,0.0,kha
0.0,0.0,138.0,78.0,45.0,25.0,0.0,55.0,0.01,0.91,0.44,-2.0,2.0,0.0,kha
0.0,0.0,138.0,78.0,47.0,24.0,0.0,55.0,0.01,0.91,0.44,-2.0,3.0,0.0,kha
0.0,0.0,137.0,77.0,44.0,22.0,0.0,57.0,0.02,0.91,0.44,-2.0,3.0,0.0,kha
0.0,0.0,136.0,77.0,45.0,22.0,0.0,57.0,0.02,0.9,0.44,-2.0,3.0,0.0,kha
0.0,0.0,137.0,78.0,44.0,24.0,0.0,58.0,0.01,0.9,0.44,-2.0,3.0,0.0,kha
0.0,0.0,137.0,78.0,56.0,22.0,0.0,58.0,0.01,0.9,0.44,-2.0,2.0,0.0,kha
0.0,0.0,138.0,78.0,54.0,24.0,0.0,58.0,0.01,0.9,0.44,-2.0,3.0,0.0,kha
0.0,0.0,136.0,78.0,56.0,24.0,0.0,57.0,0.02,0.9,0.44,-2.0,2.0,0.0,kha
0.0,0.0,135.0,79.0,54.0,24.0,0.0,63.0,0.02,0.9,0.44,-2.0,2.0,-1.0,kha
0.0,0.0,135.0,79.0,53.0,21.0,0.0,63.0,0.01,0.9,0.44,-2.0,2.0,-1.0,kha
0.0,0.0,135.0,79.0,54.0,20.0,0.0,79.0,0.01,0.9,0.44,-1.0,2.0,0.0,kha
0.0,0.0,135.0,80.0,54.0,21.0,0.0,79.0,0.02,0.9,0.44,-2.0,2.0,-1.0,kha
0.0,0.0,136.0,80.0,47.0,21.0,0.0,79.0,0.02,0.9,0.44,-2.0,2.0,-1.0,kha
0.0,0.0,136.0,80.0,45.0,21.0,0.0,75.0,0.01,0.9,0.44,-2.0,2.0,-1.0,kha
0.0,0.0,136.0,80.0,45.0,22.0,0.0,74.0,0.01,0.9,0.44,-2.0,2.0,-1.0,kha
0.0,0.0,136.0,79.0,44.0,24.0,0.0,70.0,0.01,0.9,0.44,-2.0,2.0,0.0,kha
0.0,0.0,136.0,79.0,45.0,24.0,0.0,70.0,0.01,0.9,0.44,-2.0,1.0,0.0,kha
0.0,0.0,136.0,79.0,44.0,25.0,0.0,70.0,0.02,0.91,0.44,-2.0,2.0,0.0,kha
0.0,0.0,136.0,79.0,44.0,25.0,0.0,70.0,0.01,0.91,0.44,-2.0,2.0,-1.0,kha
0.0,0.0,136.0,79.0,44.0,25.0,0.0,62.0,0.01,0.91,0.44,-1.0,2.0,-1.0,kha
0.0,0.0,136.0,79.0,44.0,25.0,0.0,47.0,0.02,0.91,0.44,-2.0,2.0,0.0,kha
0.0,0.0,136.0,79.0,42.0,25.0,0.0,45.0,0.02,0.91,0.44,-2.0,2.0,0.0,kha
0.0,0.0,136.0,78.0,47.0,25.0,0.0,43.0,0.01,0.91,0.44,-2.0,2.0,-1.0,kha
0.0,0.0,136.0,79.0,45.0,26.0,0.0,43.0,0.01,0.91,0.44,-1.0,2.0,-1.0,kha
0.0,0.0,136.0,79.0,45.0,25.0,0.0,43.0,0.01,0.91,0.44,-1.0,3.0,0.0,kha
0.0,0.0,136.0,79.0,45.0,24.0,0.0,47.0,0.02,0.91,0.44,-2.0,3.0,0.0,kha
0.0,0.0,136.0,79.0,44.0,24.0,0.0,50.0,0.02,0.91,0.44,-2.0,3.0,0.0,kha
0.0,0.0,135.0,79.0,44.0,22.0,0.0,50.0,0.01,0.91,0.44,-2.0,3.0,-1.0,kha
0.0,0.0,134.0,79.0,44.0,24.0,0.0,50.0,0.01,0.9,0.44,-3.0,3.0,0.0,kha
0.0,0.0,135.0,79.0,42.0,24.0,0.0,58.0,0.01,0.9,0.44,-3.0,3.0,0.0,kha
0.0,0.0,135.0,79.0,40.0,24.0,0.0,58.0,0.01,0.9,0.44,-3.0,3.0,0.0,kha
0.0,0.0,135.0,79.0,40.0,24.0,0.0,58.0,0.01,0.9,0.44,-2.0,3.0,0.0,kha
0.0,0.0,135.0,79.0,38.0,24.0,0.0,60.0,0.0,0.9,0.45,-3.0,3.0,0.0,kha
0.0,0.0,134.0,79.0,42.0,25.0,0.0,60.0,0.01,0.9,0.45,-3.0,2.0,0.0,kha
0.0,0.0,134.0,79.0,42.0,25.0,0.0,60.0,0.01,0.9,0.45,-3.0,3.0,0.0,kha
0.0,0.0,134.0,80.0,42.0,24.0,0.0,60.0,0.01,0.9,0.45,-3.0,2.0,0.0,kha
0.0,0.0,135.0,80.0,44.0,26.0,0.0,55.0,0.01,0.9,0.45,-3.0,2.0,0.0,kha
0.0,0.0,136.0,82.0,45.0,25.0,0.0,55.0,0.01,0.9,0.45,-3.0,2.0,0.0,kha
0.0,0.0,136.0,82.0,45.0,25.0,0.0,55.0,0.01,0.9,0.45,-3.0,2.0,1.0,kha
0.0,0.0,136.0,83.0,45.0,25.0,0.0,57.0,0.02,0.9,0.45,-3.0,2.0,1.0,kha
0.0,0.0,136.0,83.0,44.0,25.0,0.0,55.0,0.02,0.9,0.46,-3.0,2.0,0.0,kha
0.0,0.0,136.0,83.0,44.0,25.0,0.0,57.0,0.01,0.9,0.46,-3.0,2.0,0.0,kha
0.0,0.0,136.0,83.0,45.0,25.0,0.0,53.0,0.01,0.9,0.46,-3.0,2.0,0.0,kha
0.0,0.0,136.0,83.0,45.0,24.0,0.0,58.0,0.02,0.9,0.45,-3.0,2.0,0.0,kha
0.0,0.0,136.0,83.0,47.0,22.0,0.0,58.0,0.02,0.9,0.45,-3.0,2.0,0.0,kha
0.0,0.0,136.0,82.0,45.0,24.0,0.0,58.0,0.01,0.9,0.46,-3.0,2.0,-1.0,kha
0.0,0.0,135.0,82.0,47.0,22.0,0.0,62.0,0.01,0.9,0.46,-3.0,2.0,-1.0,kha
0.0,0.0,135.0,80.0,47.0,22.0,0.0,62.0,0.02,0.9,0.46,-3.0,2.0,-1.0,kha
0.0,0.0,134.0,80.0,47.0,15.0,0.0,62.0,0.02,0.91,0.46,-3.0,2.0,-1.0,kha
0.0,0.0,134.0,79.0,47.0,15.0,0.0,60.0,0.01,0.9,0.46,-3.0,2.0,-2.0,kha
0.0,0.0,134.0,79.0,53.0,15.0,0.0,62.0,0.01,0.9,0.46,-4.0,2.0,-2.0,kha
0.0,0.0,134.0,79.0,44.0,15.0,0.0,62.0,0.01,0.9,0.46,-3.0,2.0,-1.0,kha
0.0,0.0,135.0,78.0,42.0,15.0,0.0,69.0,0.02,0.9,0.46,-3.0,2.0,0.0,kha
0.0,0.0,136.0,78.0,42.0,16.0,0.0,63.0,0.02,0.9,0.46,-3.0,3.0,0.0,kha
0.0,0.0,137.0,78.0,40.0,16.0,0.0,70.0,0.01,0.9,0.47,-3.0,2.0,0.0,kha
0.0,0.0,137.0,78.0,40.0,16.0,0.0,70.0,0.01,0.9,0.47,-3.0,2.0,0.0,kha
0.0,0.0,137.0,78.0,38.0,16.0,0.0,70.0,0.01,0.9,0.47,-3.0,3.0,0.0,kha
0.0,0.0,137.0,78.0,40.0,16.0,0.0,72.0,0.02,0.89,0.46,-2.0,2.0,0.0,kha
0.0,0.0,137.0,78.0,40.0,22.0,0.0,72.0,0.02,0.89,0.46,-3.0,2.0,0.0,kha
0.0,0.0,137.0,78.0,38.0,22.0,0.0,74.0,0.02,0.89,0.47,-3.0,2.0,0.0,kha
0.0,0.0,138.0,79.0,35.0,24.0,0.0,74.0,0.01,0.89,0.47,-2.0,2.0,0.0,kha
0.0,0.0,139.0,78.0,44.0,22.0,0.0,72.0,0.02,0.89,0.47,-2.0,2.0,0.0,kha
0.0,0.0,137.0,79.0,40.0,22.0,0.0,69.0,0.02,0.89,0.47,-2.0,2.0,0.0,kha
0.0,0.0,137.0,79.0,40.0,22.0,0.0,63.0,0.02,0.89,0.47,-2.0,2.0,-1.0,kha
0.0,0.0,136.0,77.0,42.0,21.0,0.0,58.0,0.01,0.89,0.47,-1.0,2.0,-1.0,kha
0.0,0.0,136.0,78.0,42.0,22.0,0.0,58.0,0.01,0.89,0.47,-1.0,2.0,-1.0,kha
0.0,0.0,137.0,78.0,42.0,22.0,0.0,58.0,0.02,0.89,0.46,0.0,2.0,0.0,kha
0.0,0.0,136.0,78.0,35.0,22.0,0.0,62.0,0.02,0.9,0.47,0.0,2.0,0.0,kha
0.0,0.0,136.0,78.0,37.0,22.0,0.0,62.0,0.01,0.89,0.47,0.0,2.0,-1.0,kha
0.0,0.0,136.0,78.0,37.0,24.0,0.0,60.0,0.01,0.89,0.47,1.0,2.0,0.0,kha
0.0,0.0,136.0,77.0,37.0,22.0,0.0,60.0,0.01,0.89,0.46,0.0,2.0,0.0,kha
0.0,0.0,136.0,77.0,38.0,24.0,0.0,62.0,0.02,0.9,0.46,0.0,2.0,0.0,kha
0.0,0.0,136.0,78.0,40.0,24.0,0.0,60.0,0.02,0.9,0.46,0.0,2.0,0.0,kha
0.0,0.0,135.0,80.0,42.0,24.0,0.0,65.0,0.01,0.9,0.46,1.0,2.0,0.0,kha
0.0,0.0,135.0,81.0,42.0,24.0,0.0,65.0,0.01,0.9,0.46,0.0,2.0,0.0,kha
0.0,0.0,136.0,80.0,40.0,24.0,0.0,63.0,0.02,0.9,0.46,0.0,2.0,0.0,kha
0.0,0.0,135.0,80.0,40.0,25.0,0.0,63.0,0.02,0.9,0.46,0.0,2.0,0.0,kha
0.0,0.0,135.0,81.0,47.0,26.0,0.0,53.0,0.02,0.9,0.46,0.0,2.0,0.0,kha
0.0,0.0,136.0,81.0,45.0,26.0,0.0,53.0,0.02,0.9,0.46,0.0,2.0,0.0,kha
0.0,0.0,136.0,81.0,45.0,25.0,0.0,53.0,0.02,0.9,0.45,0.0,2.0,1.0,kha
0.0,0.0,136.0,82.0,45.0,25.0,0.0,53.0,0.03,0.9,0.45,-2.0,3.0,0.0,kha
0.0,0.0,136.0,82.0,44.0,24.0,0.0,53.0,0.02,0.9,0.46,-3.0,3.0,0.0,kha
0.0,0.0,137.0,83.0,44.0,24.0,0.0,53.0,0.02,0.9,0.46,-1.0,3.0,1.0,kha
0.0,0.0,137.0,81.0,45.0,22.0,0.0,55.0,0.02,0.9,0.46,-2.0,3.0,0.0,kha
0.0,0.0,137.0,81.0,45.0,22.0,0.0,55.0,0.02,0.9,0.46,-2.0,3.0,1.0,kha
0.0,0.0,137.0,81.0,45.0,22.0,0.0,57.0,0.02,0.9,0.46,-2.0,3.0,0.0,kha
0.0,0.0,137.0,81.0,45.0,20.0,0.0,57.0,0.02,0.9,0.46,-2.0,2.0,0.0,kha
0.0,0.0,137.0,80.0,44.0,20.0,0.0,62.0,0.02,0.9,0.46,-2.0,3.0,0.0,kha
0.0,0.0,137.0,80.0,45.0,21.0,0.0,62.0,0.02,0.9,0.46,-2.0,3.0,0.0,kha
0.0,0.0,137.0,80.0,45.0,21.0,0.0,62.0,0.02,0.9,0.46,-2.0,3.0,0.0,kha
0.0,0.0,137.0,80.0,44.0,21.0,0.0,62.0,0.02,0.9,0.47,-2.0,2.0,0.0,kha
0.0,0.0,137.0,80.0,42.0,21.0,0.0,58.0,0.01,0.9,0.47,-1.0,2.0,0.0,kha
0.0,0.0,136.0,79.0,40.0,21.0,0.0,58.0,0.01,0.9,0.46,-1.0,2.0,0.0,kha
0.0,0.0,138.0,79.0,31.0,24.0,0.0,58.0,0.02,0.9,0.46,-1.0,2.0,0.0,kha
0.0,0.0,138.0,79.0,31.0,22.0,0.0,58.0,0.02,0.9,0.46,-1.0,2.0,0.0,kha
0.0,0.0,137.0,79.0,33.0,22.0,0.0,57.0,0.01,0.9,0.46,-1.0,2.0,0.0,kha
0.0,0.0,138.0,79.0,35.0,22.0,0.0,58.0,0.01,0.9,0.46,0.0,2.0,0.0,kha
0.0,0.0,138.0,79.0,35.0,24.0,0.0,57.0,0.02,0.9,0.46,-1.0,2.0,0.0,kha
0.0,0.0,137.0,79.0,35.0,22.0,0.0,58.0,0.02,0.9,0.46,-1.0,2.0,0.0,kha
0.0,0.0,138.0,79.0,33.0,22.0,0.0,58.0,0.02,0.9,0.46,-1.0,2.0,0.0,kha
0.0,0.0,138.0,79.0,37.0,21.0,0.0,58.0,0.02,0.9,0.47,0.0,2.0,0.0,kha
0.0,0.0,138.0,79.0,38.0,21.0,0.0,65.0,0.02,0.9,0.46,0.0,1.0,0.0,kha
0.0,0.0,138.0,79.0,38.0,21.0,0.0,65.0,0.03,0.9,0.46,0.0,2.0,0.0,kha
0.0,0.0,137.0,79.0,44.0,20.0,0.0,65.0,0.03,0.9,0.46,-1.0,1.0,0.0,kha
0.0,0.0,136.0,79.0,44.0,20.0,0.0,65.0,0.02,0.9,0.46,0.0,2.0,0.0,kha
0.0,0.0,137.0,79.0,44.0,20.0,0.0,65.0,0.02,0.9,0.46,-1.0,1.0,0.0,kha
0.0,0.0,137.0,79.0,44.0,20.0,0.0,65.0,0.02,0.9,0.46,-2.0,2.0,0.0,kha
0.0,0.0,135.0,79.0,44.0,20.0,0.0,65.0,0.03,0.91,0.45,-2.0,2.0,-1.0,kha
0.0,0.0,135.0,79.0,45.0,21.0,0.0,65.0,0.03,0.9,0.45,-2.0,2.0,-1.0,kha
0.0,0.0,134.0,79.0,45.0,24.0,0.0,65.0,0.02,0.9,0.45,-2.0,2.0,-1.0,kha
0.0,0.0,134.0,79.0,42.0,25.0,0.0,67.0,0.02,0.91,0.45,-2.0,2.0,0.0,kha
0.0,0.0,134.0,80.0,42.0,25.0,0.0,63.0,0.03,0.91,0.45,-2.0,2.0,0.0,kha
0.0,0.0,134.0,79.0,44.0,25.0,0.0,63.0,0.02,0.9,0.45,-3.0,2.0,0.0,kha
0.0,0.0,134.0,79.0,45.0,25.0,0.0,62.0,0.02,0.9,0.46,-2.0,2.0,0.0,kha
0.0,0.0,134.0,79.0,45.0,25.0,0.0,62.0,0.02,0.9,0.46,-2.0,2.0,0.0,kha
0.0,0.0,132.0,80.0,40.0,25.0,0.0,60.0,0.02,0.9,0.45,-2.0,2.0,0.0,kha
0.0,0.0,133.0,80.0,40.0,24.0,0.0,63.0,0.03,0.9,0.45,-2.0,2.0,0.0,kha
0.0,0.0,135.0,80.0,40.0,24.0,0.0,62.0,0.02,0.9,0.46,-3.0,2.0,0.0,kha
0.0,0.0,135.0,80.0,37.0,22.0,0.0,60.0,0.02,0.9,0.46,-2.0,2.0,0.0,kha
0.0,0.0,135.0,80.0,37.0,20.0,0.0,62.0,0.02,0.9,0.46,-2.0,2.0,0.0,kha
0.0,0.0,135.0,80.0,38.0,20.0,0.0,60.0,0.03,0.9,0.46,-2.0,2.0,0.0,kha
0.0,0.0,135.0,80.0,38.0,20.0,0.0,60.0,0.02,0.9,0.46,-2.0,2.0,0.0,kha
0.0,0.0,135.0,80.0,38.0,20.0,0.0,58.0,0.02,0.9,0.46,-2.0,2.0,-1.0,kha
0.0,0.0,135.0,80.0,38.0,21.0,0.0,58.0,0.02,0.9,0.47,-2.0,2.0,0.0,kha
0.0,0.0,135.0,79.0,38.0,21.0,0.0,58.0,0.03,0.9,0.46,-2.0,2.0,0.0,kha
0.0,0.0,135.0,79.0,40.0,21.0,0.0,58.0,0.03,0.9,0.46,-1.0,2.0,0.0,kha
0.0,0.0,136.0,79.0,42.0,22.0,0.0,57.0,0.03,0.9,0.46,-2.0,2.0,-1.0,kha
0.0,0.0,136.0,78.0,42.0,22.0,0.0,55.0,0.02,0.91,0.46,-1.0,2.0,0.0,kha
0.0,0.0,136.0,78.0,49.0,22.0,0.0,57.0,0.02,0.91,0.46,-1.0,2.0,0.0,kha
0.0,0.0,135.0,78.0,49.0,22.0,0.0,57.0,0.02,0.9,0.46,-1.0,2.0,0.0,kha
0.0,0.0,135.0,78.0,47.0,21.0,0.0,55.0,0.02,0.91,0.46,-1.0,2.0,0.0,kha
0.0,0.0,135.0,78.0,44.0,21.0,0.0,55.0,0.02,0.91,0.46,-1.0,2.0,0.0,kha
0.0,0.0,135.0,78.0,42.0,21.0,0.0,57.0,0.02,0.9,0.47,-2.0,2.0,0.0,kha
0.0,0.0,136.0,79.0,44.0,22.0,0.0,58.0,0.02,0.9,0.47,-1.0,2.0,0.0,kha
0.0,0.0,136.0,79.0,45.0,22.0,0.0,60.0,0.02,0.9,0.46,0.0,2.0,0.0,kha
0.0,0.0,136.0,78.0,54.0,21.0,0.0,60.0,0.02,0.9,0.46,-2.0,2.0,0.0,kha
0.0,0.0,135.0,78.0,53.0,22.0,0.0,60.0,0.02,0.9,0.47,0.0,2.0,0.0,kha
