idxUp,idxLow,midUp,midLow,ringUp,ringLow,thumb,pinky,ax,ay,az,gx,gy,gz,label
72.0,10.0,159.0,111.0,143.0,66.0,0.0,11.0,-0.91,0.32,0.14,0.0,0.0,-2.0,nga
72.0,10.0,156.0,109.0,134.0,61.0,0.0,1.0,-0.91,0.32,0.14,0.0,0.0,-2.0,nga
77.0,11.0,154.0,107.0,125.0,56.0,0.0,0.0,-0.91,0.32,0.14,0.0,0.0,-2.0,nga
79.0,11.0,152.0,105.0,116.0,52.0,0.0,0.0,-0.91,0.32,0.14,0.0,0.0,-2.0,nga
79.0,11.0,151.0,102.0,106.0,48.0,0.0,0.0,-0.91,0.32,0.15,0.0,0.0,-1.0,nga
79.0,13.0,149.0,99.0,95.0,40.0,0.0,0.0,-0.91,0.31,0.15,0.0,1.0,0.0,nga
79.0,11.0,147.0,98.0,88.0,36.0,0.0,0.0,-0.91,0.31,0.16,-1.0,1.0,0.0,nga
79.0,13.0,146.0,95.0,81.0,33.0,0.0,0.0,-0.9,0.32,0.16,-2.0,1.0,0.0,nga
77.0,13.0,143.0,94.0,67.0,28.0,0.0,0.0,-0.9,0.32,0.16,-2.0,2.0,0.0,nga
82.0,14.0,141.0,93.0,61.0,22.0,0.0,0.0,-0.9,0.32,0.16,-1.0,2.0,0.0,nga
82.0,14.0,141.0,93.0,61.0,22.0,0.0,0.0,-0.9,0.32,0.16,-2.0,1.0,0.0,nga
84.0,14.0,141.0,92.0,60.0,22.0,0.0,0.0,-0.9,0.32,0.16,-1.0,2.0,0.0,nga
77.0,13.0,141.0,92.0,58.0,22.0,0.0,0.0,-0.91,0.32,0.17,0.0,2.0,0.0,nga
77.0,13.0,141.0,93.0,54.0,22.0,0.0,0.0,-0.92,0.33,0.16,0.0,2.0,0.0,nga
74.0,13.0,141.0,92.0,60.0,21.0,0.0,0.0,-0.92,0.32,0.15,-1.0,2.0,0.0,nga
77.0,10.0,141.0,92.0,61.0,21.0,0.0,0.0,-0.92,0.32,0.14,-3.0,1.0,0.0,nga
77.0,11.0,141.0,93.0,61.0,20.0,0.0,0.0,-0.92,0.31,0.14,-2.0,0.0,1.0,nga
77.0,10.0,141.0,93.0,63.0,19.0,0.0,0.0,-0.91,0.32,0.14,-1.0,0.0,1.0,nga
72.0,13.0,140.0,93.0,65.0,21.0,0.0,0.0,-0.92,0.32,0.14,-3.0,-2.0,0.0,nga
69.0,13.0,140.0,93.0,65.0,20.0,0.0,0.0,-0.92,0.32,0.15,-4.0,-3.0,0.0,nga
69.0,11.0,140.0,93.0,65.0,20.0,0.0,0.0,-0.92,0.31,0.16,-4.0,-2.0,0.0,nga
69.0,13.0,140.0,94.0,67.0,20.0,0.0,0.0,-0.91,0.32,0.16,-5.0,-2.0,-1.0,nga
69.0,14.0,141.0,94.0,67.0,20.0,0.0,0.0,-0.91,0.32,0.17,-6.0,-2.0,-2.0,nga
69.0,14.0,140.0,94.0,75.0,20.0,0.0,0.0,-0.9,0.31,0.18,-7.0,-3.0,-3.0,nga
72.0,14.0,141.0,94.0,75.0,20.0,0.0,0.0,-0.89,0.31,0.19,-7.0,-2.0,-4.0,nga
69.0,14.0,144.0,95.0,74.0,20.0,0.0,0.0,-0.9,0.32,0.19,-7.0,-2.0,-5.0,nga
67.0,14.0,144.0,94.0,72.0,20.0,0.0,0.0,-0.9,0.32,0.19,-8.0,-1.0,-5.0,nga
69.0,14.0,144.0,94.0,70.0,20.0,0.0,0.0,-0.91,0.31,0.2,-8.0,0.0,-6.0,nga
74.0,11.0,145.0,94.0,74.0,20.0,0.0,0.0,-0.91,0.31,0.2,-9.0,0.0,-5.0,nga
77.0,10.0,145.0,94.0,74.0,19.0,0.0,0.0,-0.9,0.3,0.21,-9.0,1.0,-5.0,nga
77.0,11.0,145.0,93.0,72.0,19.0,0.0,0.0,-0.9,0.3,0.21,-9.0,1.0,-4.0,nga
77.0,8.0,145.0,93.0,72.0,19.0,0.0,0.0,-0.9,0.3,0.21,-9.0,1.0,-4.0,nga
74.0,8.0,145.0,92.0,72.0,19.0,0.0,0.0,-0.91,0.29,0.21,-8.0,2.0,-5.0,nga
77.0,8.0,145.0,92.0,67.0,19.0,0.0,0.0,-0.91,0.28,0.21,-9.0,0.0,-5.0,nga
77.0,8.0,145.0,92.0,67.0,20.0,0.0,0.0,-0.91,0.28,0.21,-8.0,-2.0,-7.0,nga
74.0,7.0,142.0,92.0,67.0,20.0,0.0,0.0,-0.91,0.28,0.22,-7.0,-6.0,-8.0,nga
74.0,7.0,143.0,92.0,68.0,22.0,0.0,0.0,-0.92,0.26,0.22,-6.0,-7.0,-7.0,nga
72.0,7.0,142.0,92.0,68.0,22.0,0.0,0.0,-0.92,0.26,0.23,-6.0,-9.0,-7.0,nga
77.0,8.0,142.0,92.0,67.0,22.0,0.0,0.0,-0.92,0.25,0.24,-5.0,-10.0,-7.0,nga
79.0,10.0,143.0,92.0,65.0,22.0,0.0,0.0,-0.91,0.25,0.24,-5.0,-10.0,-6.0,nga
79.0,11.0,143.0,93.0,65.0,22.0,0.0,0.0,-0.92,0.24,0.25,-5.0,-10.0,-5.0,nga
77.0,11.0,143.0,93.0,65.0,21.0,0.0,0.0,-0.92,0.24,0.26,-5.0,-10.0,-4.0,nga
74.0,10.0,143.0,93.0,63.0,22.0,0.0,0.0,-0.91,0.24,0.27,-6.0,-10.0,-2.0,nga
72.0,11.0,143.0,93.0,63.0,21.0,0.0,0.0,-0.91,0.24,0.29,-5.0,-7.0,0.0,nga
72.0,11.0,142.0,93.0,63.0,21.0,0.0,0.0,-0.89,0.24,0.29,-5.0,-3.0,2.0,nga
74.0,13.0,142.0,93.0,61.0,21.0,0.0,0.0,-0.9,0.23,0.3,-6.0,3.0,4.0,nga
74.0,13.0,141.0,93.0,61.0,19.0,0.0,0.0,-0.89,0.24,0.3,-7.0,7.0,4.0,nga
74.0,13.0,141.0,93.0,61.0,19.0,0.0,0.0,-0.89,0.24,0.3,-8.0,13.0,5.0,nga
72.0,13.0,141.0,94.0,60.0,19.0,0.0,0.0,-0.9,0.25,0.3,-8.0,14.0,3.0,nga
69.0,11.0,140.0,94.0,61.0,20.0,0.0,0.0,-0.9,0.25,0.29,-7.0,16.0,2.0,nga
67.0,13.0,140.0,94.0,63.0,19.0,0.0,0.0,-0.9,0.25,0.28,-5.0,16.0,1.0,nga
69.0,13.0,140.0,93.0,65.0,19.0,0.0,0.0,-0.9,0.26,0.27,-5.0,17.0,2.0,nga
74.0,13.0,140.0,93.0,65.0,17.0,0.0,0.0,-0.9,0.26,0.26,-5.0,17.0,1.0,nga
74.0,11.0,140.0,92.0,65.0,19.0,0.0,0.0,-0.9,0.27,0.25,-4.0,17.0,1.0,nga
79.0,11.0,140.0,92.0,65.0,17.0,0.0,0.0,-0.92,0.26,0.24,-3.0,16.0,1.0,nga
79.0,11.0,140.0,92.0,67.0,17.0,0.0,0.0,-0.92,0.27,0.24,-1.0,13.0,0.0,nga
79.0,11.0,140.0,92.0,67.0,17.0,0.0,0.0,-0.92,0.27,0.23,1.0,10.0,1.0,nga
74.0,11.0,140.0,91.0,68.0,17.0,0.0,0.0,-0.92,0.27,0.22,3.0,5.0,0.0,nga
72.0,10.0,140.0,91.0,68.0,17.0,0.0,0.0,-0.92,0.28,0.21,4.0,2.0,0.0,nga
74.0,11.0,140.0,91.0,68.0,17.0,0.0,0.0,-0.92,0.28,0.22,4.0,1.0,1.0,nga
77.0,5.0,140.0,91.0,67.0,17.0,0.0,0.0,-0.92,0.27,0.21,3.0,1.0,2.0,nga
74.0,4.0,140.0,91.0,67.0,19.0,0.0,0.0,-0.93,0.27,0.21,4.0,0.0,1.0,nga
74.0,4.0,141.0,91.0,67.0,20.0,0.0,0.0,-0.93,0.27,0.21,5.0,0.0,1.0,nga
74.0,4.0,141.0,91.0,65.0,24.0,0.0,0.0,-0.93,0.26,0.21,5.0,-2.0,0.0,nga
67.0,4.0,141.0,91.0,65.0,25.0,0.0,0.0,-0.92,0.27,0.21,4.0,-2.0,0.0,nga
69.0,4.0,140.0,91.0,61.0,25.0,0.0,0.0,-0.92,0.27,0.21,4.0,-2.0,-1.0,nga
72.0,2.0,140.0,91.0,61.0,25.0,0.0,0.0,-0.91,0.27,0.21,2.0,0.0,-2.0,nga
77.0,1.0,140.0,91.0,61.0,25.0,0.0,0.0,-0.91,0.27,0.21,1.0,1.0,-2.0,nga
77.0,2.0,140.0,92.0,61.0,24.0,0.0,0.0,-0.92,0.26,0.21,1.0,2.0,-1.0,nga
77.0,1.0,140.0,92.0,60.0,24.0,0.0,0.0,-0.92,0.27,0.21,1.0,2.0,-1.0,nga
72.0,10.0,140.0,92.0,60.0,24.0,0.0,0.0,-0.92,0.27,0.2,1.0,2.0,-1.0,nga
74.0,10.0,140.0,92.0,60.0,26.0,0.0,0.0,-0.92,0.27,0.2,0.0,2.0,-2.0,nga
74.0,10.0,140.0,92.0,60.0,26.0,0.0,0.0,-0.91,0.27,0.21,0.0,3.0,-1.0,nga
72.0,10.0,140.0,92.0,58.0,22.0,0.0,0.0,-0.91,0.27,0.2,0.0,4.0,0.0,nga
74.0,11.0,140.0,92.0,58.0,22.0,0.0,0.0,-0.92,0.27,0.2,0.0,4.0,0.0,nga
72.0,11.0,141.0,92.0,58.0,22.0,0.0,0.0,-0.92,0.27,0.2,0.0,4.0,1.0,nga
69.0,11.0,140.0,92.0,56.0,22.0,0.0,0.0,-0.93,0.27,0.2,1.0,5.0,2.0,nga
69.0,11.0,140.0,92.0,58.0,22.0,0.0,0.0,-0.92,0.28,0.19,1.0,4.0,2.0,nga
69.0,11.0,140.0,91.0,60.0,21.0,0.0,0.0,-0.92,0.28,0.19,1.0,4.0,2.0,nga
69.0,11.0,140.0,91.0,60.0,21.0,0.0,0.0,-0.92,0.28,0.19,1.0,4.0,2.0,nga
72.0,10.0,140.0,91.0,54.0,21.0,0.0,0.0,-0.92,0.29,0.19,1.0,4.0,2.0,nga
77.0,11.0,140.0,91.0,56.0,17.0,0.0,0.0,-0.92,0.29,0.19,1.0,4.0,2.0,nga
74.0,11.0,140.0,91.0,67.0,17.0,0.0,0.0,-0.92,0.29,0.19,0.0,3.0,2.0,nga
77.0,11.0,140.0,91.0,68.0,16.0,0.0,0.0,-0.92,0.29,0.19,0.0,3.0,1.0,nga
77.0,11.0,140.0,90.0,68.0,15.0,0.0,0.0,-0.92,0.29,0.18,0.0,3.0,1.0,nga
77.0,11.0,140.0,90.0,65.0,16.0,0.0,0.0,-0.92,0.29,0.18,-1.0,2.0,0.0,nga
107.0,11.0,140.0,90.0,67.0,16.0,0.0,0.0,-0.91,0.29,0.18,-1.0,1.0,0.0,nga
107.0,11.0,140.0,89.0,65.0,16.0,0.0,0.0,-0.91,0.29,0.18,0.0,1.0,0.0,nga
107.0,11.0,140.0,89.0,65.0,16.0,0.0,0.0,-0.91,0.29,0.18,0.0,2.0,0.0,nga
117.0,11.0,140.0,89.0,67.0,16.0,0.0,0.0,-0.91,0.29,0.18,-1.0,3.0,0.0,nga
127.0,10.0,140.0,89.0,70.0,16.0,0.0,0.0,-0.91,0.29,0.17,0.0,4.0,0.0,nga
122.0,8.0,142.0,90.0,65.0,17.0,0.0,0.0,-0.91,0.29,0.17,-1.0,5.0,0.0,nga
122.0,10.0,142.0,90.0,53.0,17.0,0.0,0.0,-0.91,0.29,0.17,-1.0,6.0,0.0,nga
122.0,8.0,142.0,90.0,53.0,19.0,0.0,0.0,-0.91,0.29,0.17,-1.0,6.0,0.0,nga
122.0,8.0,142.0,90.0,54.0,19.0,0.0,0.0,-0.91,0.3,0.17,-1.0,6.0,0.0,nga
122.0,8.0,142.0,90.0,58.0,17.0,0.0,0.0,-0.91,0.3,0.17,-1.0,6.0,0.0,nga
92.0,4.0,142.0,90.0,58.0,17.0,0.0,0.0,-0.91,0.3,0.16,-1.0,6.0,0.0,nga
89.0,4.0,142.0,91.0,58.0,17.0,0.0,0.0,-0.91,0.3,0.16,0.0,7.0,0.0,nga
89.0,2.0,143.0,91.0,54.0,17.0,0.0,0.0,-0.92,0.3,0.16,0.0,10.0,0.0,nga
79.0,7.0,143.0,91.0,53.0,17.0,0.0,0.0,-0.92,0.3,0.16,0.0,10.0,1.0,nga
72.0,8.0,142.0,90.0,53.0,19.0,0.0,0.0,-0.92,0.3,0.16,0.0,10.0,1.0,nga
72.0,8.0,139.0,89.0,58.0,11.0,0.0,0.0,-0.91,0.31,0.15,0.0,11.0,1.0,nga
72.0,8.0,139.0,89.0,60.0,11.0,0.0,0.0,-0.92,0.3,0.14,0.0,12.0,2.0,nga
69.0,8.0,139.0,89.0,60.0,12.0,0.0,0.0,-0.91,0.3,0.13,0.0,12.0,2.0,nga
67.0,10.0,139.0,89.0,67.0,12.0,0.0,0.0,-0.92,0.3,0.12,0.0,13.0,3.0,nga
57.0,10.0,140.0,89.0,67.0,12.0,0.0,0.0,-0.92,0.31,0.12,0.0,14.0,3.0,nga
54.0,14.0,139.0,90.0,68.0,12.0,0.0,0.0,-0.91,0.31,0.1,0.0,14.0,4.0,nga
59.0,14.0,139.0,90.0,67.0,11.0,0.0,0.0,-0.93,0.31,0.09,0.0,13.0,3.0,nga
59.0,14.0,139.0,89.0,70.0,11.0,0.0,0.0,-0.92,0.32,0.08,-2.0,10.0,3.0,nga
59.0,10.0,139.0,90.0,68.0,11.0,0.0,0.0,-0.92,0.31,0.08,-2.0,8.0,2.0,nga
62.0,10.0,139.0,90.0,68.0,10.0,0.0,0.0,-0.92,0.32,0.07,-4.0,5.0,0.0,nga
62.0,11.0,139.0,92.0,68.0,16.0,0.0,0.0,-0.92,0.32,0.06,-4.0,2.0,-1.0,nga
59.0,10.0,139.0,92.0,68.0,16.0,0.0,0.0,-0.92,0.31,0.06,-5.0,0.0,-3.0,nga
62.0,10.0,139.0,92.0,68.0,16.0,0.0,0.0,-0.92,0.31,0.07,-6.0,-2.0,-4.0,nga
64.0,8.0,139.0,92.0,60.0,16.0,0.0,0.0,-0.92,0.31,0.08,-7.0,-3.0,-4.0,nga
74.0,10.0,139.0,92.0,60.0,16.0,0.0,0.0,-0.92,0.31,0.08,-7.0,-4.0,-4.0,nga
72.0,8.0,139.0,92.0,60.0,16.0,0.0,0.0,-0.92,0.31,0.08,-7.0,-6.0,-5.0,nga
72.0,10.0,139.0,92.0,61.0,17.0,0.0,0.0,-0.92,0.31,0.09,-7.0,-8.0,-5.0,nga
74.0,10.0,139.0,94.0,61.0,17.0,0.0,0.0,-0.92,0.3,0.1,-6.0,-8.0,-5.0,nga
94.0,10.0,139.0,94.0,63.0,17.0,0.0,0.0,-0.92,0.3,0.11,-6.0,-9.0,-4.0,nga
102.0,10.0,138.0,94.0,65.0,19.0,0.0,0.0,-0.91,0.29,0.12,-4.0,-8.0,-3.0,nga
102.0,10.0,138.0,94.0,65.0,19.0,0.0,0.0,-0.91,0.29,0.13,-3.0,-7.0,-2.0,nga
104.0,10.0,138.0,94.0,65.0,20.0,0.0,0.0,-0.91,0.29,0.14,-2.0,-7.0,-2.0,nga
102.0,11.0,138.0,94.0,65.0,20.0,0.0,0.0,-0.91,0.29,0.15,-1.0,-7.0,-1.0,nga
99.0,13.0,139.0,94.0,67.0,20.0,0.0,0.0,-0.91,0.3,0.15,0.0,-7.0,-1.0,nga
94.0,13.0,138.0,95.0,67.0,19.0,0.0,0.0,-0.91,0.29,0.15,-1.0,-6.0,0.0,nga
94.0,11.0,139.0,95.0,67.0,19.0,0.0,0.0,-0.91,0.29,0.16,0.0,-5.0,0.0,nga
92.0,13.0,138.0,96.0,67.0,19.0,0.0,0.0,-0.91,0.29,0.16,-2.0,-4.0,0.0,nga
94.0,13.0,138.0,95.0,67.0,19.0,0.0,0.0,-0.91,0.29,0.17,-2.0,-3.0,0.0,nga
72.0,8.0,138.0,95.0,67.0,20.0,0.0,0.0,-0.91,0.3,0.17,-1.0,-1.0,1.0,nga
62.0,10.0,138.0,94.0,65.0,20.0,0.0,0.0,-0.91,0.29,0.17,0.0,0.0,2.0,nga
62.0,8.0,139.0,94.0,63.0,20.0,0.0,0.0,-0.91,0.3,0.17,0.0,2.0,2.0,nga
62.0,8.0,139.0,94.0,61.0,19.0,0.0,0.0,-0.91,0.3,0.17,0.0,3.0,3.0,nga
62.0,7.0,139.0,94.0,61.0,19.0,0.0,0.0,-0.91,0.3,0.16,-2.0,4.0,2.0,nga
67.0,7.0,139.0,94.0,60.0,20.0,0.0,0.0,-0.91,0.3,0.16,-3.0,3.0,1.0,nga
72.0,5.0,138.0,94.0,60.0,20.0,0.0,0.0,-0.91,0.3,0.16,-2.0,3.0,0.0,nga
72.0,5.0,138.0,94.0,60.0,21.0,0.0,0.0,-0.91,0.3,0.16,-2.0,3.0,0.0,nga
74.0,4.0,139.0,94.0,56.0,20.0,0.0,0.0,-0.91,0.3,0.16,-2.0,2.0,-1.0,nga
59.0,5.0,139.0,94.0,56.0,17.0,0.0,0.0,-0.91,0.3,0.16,-2.0,1.0,-1.0,nga
59.0,8.0,141.0,95.0,58.0,17.0,0.0,0.0,-0.91,0.3,0.16,-2.0,1.0,-2.0,nga
62.0,8.0,141.0,95.0,60.0,15.0,0.0,0.0,-0.91,0.3,0.16,-3.0,1.0,-3.0,nga
62.0,10.0,141.0,94.0,58.0,15.0,0.0,0.0,-0.91,0.3,0.17,-2.0,2.0,-2.0,nga
59.0,10.0,140.0,94.0,58.0,15.0,0.0,0.0,-0.91,0.3,0.17,-2.0,5.0,0.0,nga
62.0,10.0,142.0,94.0,58.0,16.0,0.0,0.0,-0.91,0.3,0.17,0.0,6.0,1.0,nga
54.0,11.0,143.0,94.0,54.0,16.0,0.0,0.0,-0.91,0.3,0.16,0.0,9.0,3.0,nga
52.0,13.0,143.0,94.0,58.0,15.0,0.0,0.0,-0.91,0.3,0.16,0.0,9.0,3.0,nga
54.0,13.0,143.0,94.0,58.0,16.0,0.0,0.0,-0.91,0.31,0.16,0.0,9.0,4.0,nga
52.0,13.0,143.0,93.0,60.0,16.0,0.0,0.0,-0.91,0.31,0.16,0.0,11.0,4.0,nga
64.0,13.0,143.0,93.0,60.0,19.0,0.0,0.0,-0.91,0.31,0.15,0.0,11.0,4.0,nga
64.0,13.0,141.0,92.0,56.0,19.0,0.0,0.0,-0.91,0.32,0.14,0.0,11.0,4.0,nga
67.0,14.0,141.0,92.0,56.0,21.0,0.0,0.0,-0.91,0.32,0.14,0.0,10.0,4.0,nga
64.0,14.0,138.0,92.0,54.0,21.0,0.0,0.0,-0.91,0.33,0.13,-1.0,8.0,2.0,nga
67.0,13.0,139.0,92.0,56.0,21.0,0.0,0.0,-0.91,0.33,0.12,-2.0,5.0,1.0,nga
64.0,11.0,136.0,92.0,58.0,19.0,0.0,0.0,-0.91,0.33,0.13,-2.0,3.0,-1.0,nga
69.0,11.0,136.0,92.0,61.0,19.0,0.0,0.0,-0.91,0.33,0.13,-2.0,0.0,-3.0,nga
74.0,8.0,136.0,92.0,60.0,20.0,0.0,0.0,-0.91,0.32,0.14,-2.0,1.0,-2.0,nga
72.0,10.0,136.0,92.0,60.0,20.0,0.0,0.0,-0.91,0.33,0.14,0.0,1.0,-2.0,nga
74.0,10.0,137.0,92.0,60.0,20.0,0.0,0.0,-0.91,0.33,0.13,-1.0,1.0,-1.0,nga
67.0,13.0,136.0,92.0,60.0,21.0,0.0,0.0,-0.91,0.33,0.14,0.0,1.0,-1.0,nga
64.0,14.0,136.0,93.0,61.0,21.0,0.0,0.0,-0.9,0.33,0.14,-1.0,1.0,-2.0,nga
62.0,14.0,136.0,93.0,63.0,20.0,0.0,0.0,-0.91,0.33,0.14,-1.0,1.0,-2.0,nga
62.0,14.0,139.0,92.0,70.0,21.0,0.0,0.0,-0.91,0.32,0.14,-1.0,1.0,-2.0,nga
62.0,16.0,137.0,92.0,67.0,21.0,0.0,0.0,-0.91,0.32,0.15,-2.0,1.0,-2.0,nga
64.0,16.0,138.0,92.0,67.0,21.0,0.0,0.0,-0.91,0.32,0.15,-2.0,1.0,-2.0,nga
82.0,16.0,138.0,92.0,65.0,21.0,0.0,0.0,-0.91,0.32,0.15,-1.0,1.0,-2.0,nga
79.0,16.0,138.0,92.0,67.0,21.0,0.0,0.0,-0.91,0.32,0.15,-2.0,1.0,-2.0,nga
94.0,16.0,138.0,92.0,65.0,20.0,0.0,0.0,-0.91,0.32,0.15,-3.0,1.0,-2.0,nga
94.0,16.0,137.0,91.0,65.0,20.0,0.0,0.0,-0.91,0.32,0.15,-3.0,0.0,-2.0,nga
102.0,13.0,138.0,91.0,65.0,19.0,0.0,0.0,-0.91,0.31,0.15,-3.0,0.0,-2.0,nga
102.0,10.0,138.0,91.0,65.0,19.0,0.0,0.0,-0.91,0.31,0.16,-3.0,1.0,-2.0,nga
109.0,10.0,138.0,91.0,61.0,19.0,0.0,0.0,-0.91,0.31,0.16,-3.0,1.0,-2.0,nga
104.0,8.0,138.0,91.0,61.0,17.0,0.0,0.0,-0.91,0.31,0.16,-3.0,1.0,-2.0,nga
122.0,10.0,140.0,91.0,58.0,17.0,0.0,0.0,-0.91,0.31,0.16,-3.0,2.0,0.0,nga
122.0,10.0,139.0,91.0,58.0,17.0,0.0,0.0,-0.91,0.31,0.15,-3.0,2.0,0.0,nga
99.0,8.0,139.0,91.0,58.0,17.0,0.0,0.0,-0.91,0.31,0.16,-2.0,2.0,0.0,nga
102.0,10.0,139.0,91.0,58.0,17.0,0.0,0.0,-0.91,0.31,0.15,-2.0,2.0,0.0,nga
87.0,10.0,139.0,91.0,58.0,19.0,0.0,0.0,-0.91,0.31,0.15,-2.0,2.0,0.0,nga
89.0,10.0,139.0,92.0,56.0,19.0,0.0,0.0,-0.91,0.31,0.15,-2.0,2.0,0.0,nga
89.0,10.0,139.0,92.0,58.0,19.0,0.0,0.0,-0.91,0.31,0.15,-2.0,2.0,0.0,nga
94.0,10.0,139.0,92.0,58.0,19.0,0.0,0.0,-0.91,0.32,0.15,-2.0,2.0,0.0,nga
82.0,10.0,139.0,92.0,63.0,19.0,0.0,0.0,-0.91,0.32,0.15,-2.0,2.0,0.0,nga
87.0,11.0,139.0,92.0,61.0,19.0,0.0,0.0,-0.91,0.32,0.15,-2.0,2.0,0.0,nga
72.0,10.0,139.0,92.0,63.0,19.0,0.0,0.0,-0.91,0.32,0.15,-2.0,2.0,0.0,nga
67.0,10.0,139.0,91.0,63.0,19.0,0.0,0.0,-0.91,0.32,0.15,-2.0,2.0,0.0,nga
79.0,11.0,139.0,92.0,61.0,19.0,0.0,0.0,-0.91,0.32,0.15,-2.0,3.0,0.0,nga
77.0,11.0,139.0,92.0,54.0,19.0,0.0,0.0,-0.91,0.32,0.15,-2.0,2.0,0.0,nga
72.0,11.0,139.0,92.0,54.0,19.0,0.0,0.0,-0.91,0.32,0.15,-2.0,2.0,0.0,nga
69.0,13.0,137.0,92.0,54.0,16.0,0.0,0.0,-0.91,0.31,0.15,-2.0,3.0,0.0,nga
69.0,11.0,138.0,92.0,54.0,16.0,0.0,0.0,-0.91,0.31,0.15,-2.0,3.0,0.0,nga
67.0,13.0,138.0,92.0,53.0,16.0,0.0,0.0,-0.91,0.31,0.15,-2.0,3.0,0.0,nga
69.0,11.0,138.0,92.0,49.0,17.0,0.0,0.0,-0.91,0.31,0.15,-2.0,3.0,0.0,nga
72.0,13.0,138.0,93.0,49.0,17.0,0.0,0.0,-0.91,0.31,0.15,-2.0,3.0,0.0,nga
69.0,13.0,137.0,93.0,49.0,16.0,0.0,0.0,-0.91,0.31,0.15,-2.0,3.0,0.0,nga
69.0,13.0,137.0,93.0,51.0,16.0,0.0,0.0,-0.91,0.31,0.15,-2.0,3.0,0.0,nga
64.0,16.0,137.0,93.0,37.0,16.0,0.0,0.0,-0.92,0.31,0.15,-2.0,3.0,0.0,nga
64.0,16.0,136.0,92.0,44.0,16.0,0.0,0.0,-0.91,0.31,0.15,-2.0,3.0,0.0,nga
67.0,16.0,137.0,92.0,45.0,16.0,0.0,0.0,-0.91,0.31,0.15,-1.0,3.0,0.0,nga
69.0,16.0,138.0,92.0,45.0,19.0,0.0,0.0,-0.91,0.31,0.15,-2.0,3.0,0.0,nga
67.0,17.0,138.0,92.0,45.0,19.0,0.0,0.0,-0.91,0.31,0.15,-1.0,3.0,0.0,nga
72.0,16.0,137.0,92.0,47.0,19.0,0.0,0.0,-0.91,0.31,0.15,-1.0,2.0,0.0,nga
72.0,16.0,138.0,92.0,51.0,19.0,0.0,0.0,-0.91,0.31,0.15,0.0,2.0,0.0,nga
72.0,14.0,138.0,91.0,51.0,19.0,0.0,0.0,-0.91,0.31,0.15,-1.0,2.0,0.0,nga
74.0,14.0,138.0,91.0,49.0,17.0,0.0,0.0,-0.91,0.32,0.15,0.0,2.0,0.0,nga
69.0,13.0,138.0,91.0,49.0,21.0,0.0,0.0,-0.91,0.32,0.15,0.0,2.0,0.0,nga
69.0,10.0,138.0,91.0,65.0,21.0,0.0,0.0,-0.91,0.32,0.15,-1.0,2.0,0.0,nga
69.0,8.0,140.0,91.0,65.0,21.0,0.0,0.0,-0.91,0.32,0.15,-1.0,2.0,0.0,nga
67.0,7.0,140.0,92.0,63.0,21.0,0.0,0.0,-0.91,0.32,0.15,-1.0,2.0,-1.0,nga
64.0,7.0,140.0,94.0,63.0,20.0,0.0,0.0,-0.91,0.32,0.15,0.0,2.0,-1.0,nga
64.0,7.0,140.0,94.0,63.0,20.0,0.0,0.0,-0.91,0.31,0.15,-1.0,2.0,-1.0,nga
64.0,8.0,140.0,94.0,61.0,20.0,0.0,0.0,-0.91,0.31,0.15,0.0,2.0,-2.0,nga
64.0,7.0,140.0,94.0,58.0,22.0,0.0,0.0,-0.91,0.31,0.15,-2.0,2.0,-2.0,nga
67.0,8.0,140.0,94.0,60.0,22.0,0.0,0.0,-0.91,0.31,0.15,-1.0,2.0,-2.0,nga
67.0,8.0,140.0,93.0,58.0,22.0,0.0,0.0,-0.91,0.31,0.15,-1.0,2.0,-2.0,nga
67.0,8.0,140.0,93.0,60.0,19.0,0.0,0.0,-0.91,0.31,0.15,-1.0,2.0,-2.0,nga
64.0,8.0,140.0,94.0,58.0,19.0,0.0,0.0,-0.91,0.31,0.15,-1.0,2.0,-2.0,nga
64.0,10.0,138.0,94.0,58.0,16.0,0.0,0.0,-0.91,0.31,0.15,-1.0,3.0,-2.0,nga
64.0,10.0,137.0,93.0,60.0,15.0,0.0,0.0,-0.91,0.31,0.15,-2.0,3.0,-2.0,nga
69.0,10.0,138.0,92.0,54.0,16.0,0.0,0.0,-0.92,0.31,0.15,-2.0,3.0,-2.0,nga
69.0,10.0,138.0,92.0,56.0,16.0,0.0,0.0,-0.92,0.31,0.16,-1.0,3.0,-1.0,nga
62.0,10.0,138.0,92.0,47.0,16.0,0.0,0.0,-0.91,0.31,0.16,-1.0,3.0,-1.0,nga
64.0,10.0,138.0,92.0,45.0,14.0,0.0,0.0,-0.91,0.31,0.15,-1.0,2.0,-1.0,nga
64.0,10.0,138.0,92.0,38.0,12.0,0.0,0.0,-0.91,0.31,0.15,-1.0,2.0,-1.0,nga
62.0,10.0,138.0,92.0,37.0,14.0,0.0,0.0,-0.91,0.31,0.16,-2.0,2.0,0.0,nga
64.0,10.0,138.0,92.0,37.0,14.0,0.0,0.0,-0.91,0.31,0.16,-2.0,2.0,0.0,nga
79.0,10.0,138.0,92.0,37.0,15.0,0.0,0.0,-0.91,0.31,0.16,-1.0,1.0,0.0,nga
82.0,11.0,138.0,92.0,37.0,16.0,0.0,0.0,-0.91,0.31,0.16,-2.0,1.0,0.0,nga
82.0,11.0,139.0,92.0,37.0,17.0,0.0,0.0,-0.91,0.31,0.16,-2.0,1.0,0.0,nga
82.0,11.0,139.0,91.0,42.0,17.0,0.0,0.0,-0.91,0.31,0.16,-2.0,1.0,0.0,nga
79.0,11.0,139.0,91.0,40.0,17.0,0.0,0.0,-0.91,0.31,0.15,-2.0,1.0,0.0,nga
87.0,13.0,139.0,91.0,53.0,17.0,0.0,0.0,-0.91,0.31,0.15,-2.0,1.0,0.0,nga
87.0,14.0,139.0,91.0,54.0,17.0,0.0,0.0,-0.91,0.31,0.15,-2.0,1.0,0.0,nga
84.0,11.0,139.0,92.0,60.0,17.0,0.0,0.0,-0.91,0.31,0.15,-2.0,2.0,0.0,nga
84.0,11.0,139.0,91.0,56.0,17.0,0.0,0.0,-0.91,0.31,0.15,-1.0,2.0,0.0,nga
82.0,11.0,139.0,92.0,58.0,16.0,0.0,0.0,-0.91,0.31,0.16,0.0,2.0,0.0,nga
64.0,11.0,139.0,92.0,58.0,15.0,0.0,0.0,-0.92,0.31,0.16,0.0,2.0,-1.0,nga
64.0,10.0,139.0,91.0,58.0,15.0,0.0,0.0,-0.92,0.31,0.16,0.0,1.0,-1.0,nga
64.0,10.0,139.0,91.0,58.0,15.0,0.0,0.0,-0.92,0.31,0.16,0.0,1.0,-1.0,nga
72.0,13.0,139.0,91.0,58.0,15.0,0.0,0.0,-0.92,0.31,0.16,0.0,2.0,-1.0,nga
74.0,13.0,139.0,91.0,58.0,15.0,0.0,0.0,-0.92,0.31,0.16,0.0,1.0,-1.0,nga
72.0,10.0,139.0,91.0,56.0,14.0,0.0,0.0,-0.92,0.31,0.16,0.0,1.0,-1.0,nga
69.0,10.0,139.0,91.0,53.0,14.0,0.0,0.0,-0.92,0.31,0.16,0.0,1.0,0.0,nga
69.0,5.0,139.0,91.0,54.0,14.0,0.0,0.0,-0.92,0.31,0.16,0.0,1.0,0.0,nga
67.0,4.0,139.0,91.0,60.0,14.0,0.0,0.0,-0.92,0.32,0.15,0.0,1.0,0.0,nga
67.0,4.0,140.0,91.0,58.0,15.0,0.0,0.0,-0.92,0.31,0.15,0.0,0.0,0.0,nga
62.0,4.0,140.0,90.0,58.0,15.0,0.0,0.0,-0.91,0.31,0.15,-1.0,1.0,0.0,nga
64.0,4.0,140.0,91.0,56.0,15.0,0.0,0.0,-0.91,0.31,0.15,-1.0,1.0,0.0,nga
62.0,5.0,141.0,91.0,56.0,15.0,0.0,0.0,-0.91,0.31,0.15,-2.0,1.0,0.0,nga
54.0,1.0,141.0,91.0,56.0,16.0,0.0,0.0,-0.91,0.31,0.15,-2.0,1.0,0.0,nga
54.0,1.0,141.0,91.0,56.0,16.0,0.0,0.0,-0.91,0.31,0.15,-2.0,1.0,0.0,nga
52.0,1.0,141.0,91.0,56.0,16.0,0.0,0.0,-0.91,0.31,0.15,-2.0,1.0,0.0,nga
54.0,1.0,141.0,91.0,58.0,17.0,0.0,0.0,-0.91,0.31,0.15,-2.0,1.0,0.0,nga
59.0,4.0,141.0,91.0,58.0,17.0,0.0,0.0,-0.91,0.31,0.15,-2.0,1.0,0.0,nga
59.0,7.0,141.0,91.0,56.0,17.0,0.0,0.0,-0.91,0.3,0.16,-2.0,1.0,0.0,nga
59.0,5.0,140.0,91.0,54.0,17.0,0.0,0.0,-0.91,0.31,0.16,-2.0,1.0,0.0,nga
67.0,8.0,139.0,91.0,54.0,14.0,0.0,0.0,-0.91,0.31,0.16,-2.0,1.0,0.0,nga
64.0,8.0,139.0,91.0,56.0,14.0,0.0,0.0,-0.91,0.31,0.16,-2.0,1.0,0.0,nga
69.0,8.0,139.0,91.0,54.0,14.0,0.0,0.0,-0.91,0.3,0.16,-2.0,1.0,0.0,nga
69.0,10.0,139.0,91.0,54.0,14.0,0.0,0.0,-0.92,0.3,0.16,-1.0,2.0,0.0,nga
67.0,10.0,140.0,91.0,54.0,14.0,0.0,0.0,-0.91,0.3,0.15,-2.0,2.0,0.0,nga
74.0,10.0,140.0,91.0,54.0,12.0,0.0,0.0,-0.91,0.3,0.15,-2.0,2.0,0.0,nga
72.0,10.0,140.0,91.0,56.0,12.0,0.0,0.0,-0.91,0.31,0.15,-1.0,3.0,0.0,nga
69.0,11.0,140.0,91.0,58.0,12.0,0.0,0.0,-0.91,0.31,0.15,-2.0,3.0,0.0,nga
72.0,11.0,140.0,91.0,56.0,12.0,0.0,0.0,-0.91,0.31,0.15,-1.0,3.0,0.0,nga
72.0,11.0,139.0,91.0,58.0,12.0,0.0,0.0,-0.92,0.31,0.15,-2.0,4.0,-1.0,nga
72.0,10.0,139.0,91.0,60.0,16.0,0.0,0.0,-0.92,0.31,0.15,-2.0,4.0,-1.0,nga
72.0,8.0,140.0,91.0,54.0,16.0,0.0,0.0,-0.92,0.31,0.15,-2.0,4.0,-1.0,nga
72.0,8.0,139.0,91.0,56.0,17.0,0.0,0.0,-0.92,0.31,0.15,-2.0,4.0,-1.0,nga
72.0,8.0,139.0,91.0,56.0,17.0,0.0,0.0,-0.92,0.31,0.15,-2.0,4.0,-1.0,nga
74.0,8.0,138.0,91.0,54.0,17.0,0.0,0.0,-0.92,0.3,0.15,-2.0,4.0,-1.0,nga
69.0,8.0,138.0,91.0,53.0,17.0,0.0,0.0,-0.92,0.3,0.15,-1.0,4.0,-1.0,nga
72.0,8.0,137.0,91.0,51.0,17.0,0.0,0.0,-0.92,0.3,0.15,-2.0,4.0,-1.0,nga
72.0,8.0,138.0,91.0,49.0,19.0,0.0,0.0,-0.92,0.3,0.16,0.0,3.0,0.0,nga
69.0,10.0,137.0,91.0,53.0,19.0,0.0,0.0,-0.92,0.3,0.15,0.0,3.0,0.0,nga
69.0,10.0,138.0,91.0,53.0,19.0,0.0,0.0,-0.92,0.3,0.16,0.0,3.0,0.0,nga
69.0,10.0,138.0,91.0,53.0,17.0,0.0,0.0,-0.91,0.31,0.16,0.0,3.0,0.0,nga
67.0,10.0,138.0,91.0,58.0,20.0,0.0,0.0,-0.92,0.3,0.16,0.0,3.0,0.0,nga
67.0,10.0,138.0,91.0,56.0,19.0,0.0,0.0,-0.91,0.31,0.16,0.0,3.0,0.0,nga
64.0,10.0,139.0,91.0,56.0,19.0,0.0,0.0,-0.91,0.31,0.15,0.0,2.0,0.0,nga
62.0,10.0,139.0,91.0,56.0,19.0,0.0,0.0,-0.91,0.31,0.16,0.0,2.0,0.0,nga
62.0,10.0,139.0,91.0,58.0,20.0,0.0,0.0,-0.91,0.31,0.15,0.0,2.0,0.0,nga
64.0,10.0,139.0,91.0,58.0,19.0,0.0,0.0,-0.91,0.31,0.15,0.0,1.0,0.0,nga
64.0,8.0,139.0,91.0,58.0,19.0,0.0,0.0,-0.91,0.32,0.15,-2.0,1.0,0.0,nga
74.0,8.0,139.0,91.0,58.0,17.0,0.0,0.0,-0.91,0.31,0.15,-2.0,1.0,0.0,nga
77.0,8.0,139.0,91.0,58.0,19.0,0.0,0.0,-0.91,0.31,0.15,-2.0,1.0,0.0,nga
74.0,8.0,139.0,91.0,58.0,19.0,0.0,0.0,-0.91,0.31,0.15,-2.0,1.0,0.0,nga
79.0,8.0,139.0,91.0,58.0,16.0,0.0,0.0,-0.91,0.31,0.15,-3.0,1.0,0.0,nga
79.0,10.0,139.0,91.0,58.0,16.0,0.0,0.0,-0.91,0.31,0.15,-2.0,1.0,0.0,nga
79.0,10.0,139.0,91.0,58.0,17.0,0.0,0.0,-0.91,0.31,0.15,-3.0,2.0,0.0,nga
82.0,10.0,139.0,91.0,60.0,16.0,0.0,0.0,-0.91,0.31,0.15,-3.0,2.0,0.0,nga
82.0,10.0,139.0,91.0,58.0,16.0,0.0,0.0,-0.91,0.31,0.15,-2.0,2.0,0.0,nga
82.0,10.0,139.0,91.0,58.0,15.0,0.0,0.0,-0.91,0.3,0.15,-3.0,2.0,0.0,nga
84.0,10.0,139.0,91.0,58.0,15.0,0.0,0.0,-0.91,0.31,0.16,-1.0,2.0,0.0,nga
74.0,10.0,140.0,90.0,58.0,16.0,0.0,0.0,-0.91,0.31,0.15,-2.0,2.0,0.0,nga
69.0,10.0,140.0,90.0,60.0,15.0,0.0,0.0,-0.9,0.31,0.15,-1.0,2.0,0.0,nga
72.0,10.0,140.0,90.0,58.0,16.0,0.0,0.0,-0.9,0.31,0.15,-2.0,2.0,0.0,nga
72.0,8.0,140.0,90.0,56.0,16.0,0.0,0.0,-0.91,0.31,0.15,0.0,3.0,1.0,nga
69.0,8.0,141.0,90.0,58.0,16.0,0.0,0.0,-0.91,0.32,0.15,0.0,4.0,1.0,nga
74.0,7.0,141.0,90.0,60.0,15.0,0.0,0.0,-0.9,0.32,0.15,0.0,4.0,1.0,nga
74.0,8.0,141.0,90.0,58.0,16.0,0.0,0.0,-0.91,0.32,0.15,-1.0,4.0,1.0,nga
72.0,8.0,140.0,90.0,60.0,16.0,0.0,0.0,-0.91,0.32,0.15,-1.0,4.0,1.0,nga
72.0,8.0,141.0,90.0,60.0,15.0,0.0,0.0,-0.91,0.32,0.14,0.0,4.0,1.0,nga
72.0,10.0,140.0,90.0,60.0,16.0,0.0,0.0,-0.91,0.33,0.14,-2.0,4.0,1.0,nga
67.0,11.0,138.0,90.0,58.0,16.0,0.0,0.0,-0.91,0.32,0.14,-1.0,4.0,1.0,nga
72.0,11.0,138.0,90.0,58.0,17.0,0.0,0.0,-0.91,0.33,0.14,-1.0,4.0,1.0,nga
72.0,11.0,138.0,90.0,60.0,16.0,0.0,0.0,-0.91,0.33,0.14,-2.0,4.0,0.0,nga
67.0,11.0,138.0,90.0,60.0,16.0,0.0,0.0,-0.91,0.33,0.14,-2.0,4.0,0.0,nga
69.0,14.0,137.0,89.0,60.0,16.0,0.0,0.0,-0.91,0.33,0.14,-2.0,3.0,0.0,nga
69.0,17.0,137.0,90.0,58.0,17.0,0.0,0.0,-0.91,0.33,0.14,-2.0,3.0,0.0,nga
67.0,17.0,137.0,90.0,60.0,17.0,0.0,0.0,-0.91,0.32,0.14,-2.0,3.0,0.0,nga
69.0,16.0,137.0,90.0,58.0,17.0,0.0,0.0,-0.91,0.33,0.14,-2.0,3.0,-1.0,nga
69.0,16.0,133.0,90.0,58.0,19.0,0.0,0.0,-0.91,0.33,0.14,-2.0,3.0,-1.0,nga
67.0,16.0,133.0,91.0,58.0,19.0,0.0,0.0,-0.91,0.32,0.14,-2.0,2.0,-1.0,nga
69.0,16.0,134.0,91.0,60.0,17.0,0.0,0.0,-0.91,0.32,0.14,-2.0,2.0,-1.0,nga
67.0,14.0,134.0,91.0,60.0,16.0,0.0,0.0,-0.91,0.32,0.14,-2.0,2.0,0.0,nga
49.0,10.0,134.0,91.0,58.0,17.0,0.0,0.0,-0.91,0.32,0.14,-1.0,2.0,0.0,nga
62.0,10.0,134.0,91.0,60.0,17.0,0.0,0.0,-0.91,0.32,0.14,-1.0,1.0,0.0,nga
62.0,7.0,135.0,91.0,58.0,17.0,0.0,0.0,-0.91,0.32,0.14,-1.0,2.0,0.0,nga
54.0,4.0,134.0,91.0,60.0,17.0,0.0,0.0,-0.91,0.32,0.14,0.0,2.0,0.0,nga
57.0,4.0,133.0,91.0,58.0,17.0,0.0,0.0,-0.91,0.32,0.14,0.0,2.0,0.0,nga
52.0,4.0,133.0,91.0,60.0,16.0,0.0,0.0,-0.91,0.32,0.14,-1.0,2.0,0.0,nga
47.0,4.0,138.0,90.0,61.0,16.0,0.0,0.0,-0.91,0.32,0.14,-1.0,3.0,0.0,nga
47.0,5.0,137.0,90.0,61.0,15.0,0.0,0.0,-0.91,0.32,0.14,-2.0,3.0,1.0,nga
42.0,4.0,137.0,90.0,60.0,15.0,0.0,0.0,-0.91,0.32,0.14,-2.0,3.0,0.0,nga
42.0,4.0,139.0,90.0,60.0,15.0,0.0,0.0,-0.91,0.32,0.14,-2.0,4.0,0.0,nga
59.0,8.0,139.0,90.0,61.0,15.0,0.0,0.0,-0.91,0.32,0.14,-3.0,3.0,0.0,nga
49.0,8.0,139.0,90.0,58.0,15.0,0.0,0.0,-0.91,0.32,0.15,-3.0,3.0,0.0,nga
49.0,7.0,139.0,90.0,58.0,16.0,0.0,0.0,-0.91,0.32,0.15,-3.0,3.0,0.0,nga
57.0,7.0,140.0,90.0,58.0,16.0,0.0,0.0,-0.91,0.32,0.14,-3.0,3.0,0.0,nga
27.0,7.0,140.0,90.0,58.0,16.0,0.0,0.0,-0.91,0.32,0.14,-3.0,3.0,0.0,nga
29.0,7.0,141.0,90.0,58.0,17.0,0.0,0.0,-0.91,0.32,0.14,-3.0,3.0,0.0,nga
32.0,7.0,141.0,90.0,58.0,17.0,0.0,0.0,-0.91,0.32,0.14,-3.0,2.0,0.0,nga
32.0,5.0,141.0,91.0,58.0,16.0,0.0,0.0,-0.9,0.32,0.14,-2.0,2.0,-1.0,nga
37.0,5.0,141.0,91.0,60.0,16.0,0.0,0.0,-0.9,0.32,0.14,-3.0,2.0,0.0,nga
39.0,4.0,141.0,91.0,60.0,16.0,0.0,0.0,-0.9,0.32,0.14,-2.0,2.0,-1.0,nga
39.0,5.0,141.0,91.0,60.0,16.0,0.0,0.0,-0.91,0.32,0.14,-2.0,3.0,0.0,nga
27.0,4.0,141.0,90.0,58.0,16.0,0.0,0.0,-0.9,0.32,0.14,-1.0,3.0,0.0,nga
27.0,5.0,141.0,90.0,58.0,14.0,0.0,0.0,-0.9,0.32,0.14,-1.0,3.0,0.0,nga
27.0,5.0,142.0,90.0,56.0,14.0,0.0,0.0,-0.9,0.32,0.14,-2.0,3.0,-1.0,nga
57.0,5.0,141.0,90.0,56.0,14.0,0.0,0.0,-0.91,0.32,0.14,-2.0,3.0,-1.0,nga
57.0,7.0,141.0,90.0,53.0,14.0,0.0,0.0,-0.9,0.32,0.14,-2.0,3.0,-1.0,nga
57.0,7.0,141.0,90.0,56.0,14.0,0.0,0.0,-0.91,0.32,0.14,-1.0,3.0,-1.0,nga
57.0,7.0,141.0,90.0,54.0,14.0,0.0,0.0,-0.91,0.32,0.14,-1.0,3.0,-2.0,nga
59.0,7.0,141.0,90.0,54.0,14.0,0.0,0.0,-0.91,0.32,0.14,-1.0,3.0,-2.0,nga
57.0,8.0,138.0,90.0,53.0,14.0,0.0,0.0,-0.91,0.32,0.14,-2.0,3.0,-2.0,nga
52.0,8.0,138.0,90.0,54.0,14.0,0.0,0.0,-0.91,0.32,0.14,-2.0,2.0,-2.0,nga
64.0,8.0,138.0,90.0,60.0,15.0,0.0,0.0,-0.91,0.32,0.14,-1.0,2.0,-2.0,nga
62.0,8.0,137.0,90.0,60.0,15.0,0.0,0.0,-0.91,0.32,0.14,-2.0,2.0,-2.0,nga
59.0,8.0,138.0,90.0,58.0,16.0,0.0,0.0,-0.92,0.32,0.14,0.0,2.0,-2.0,nga
62.0,7.0,138.0,91.0,60.0,16.0,0.0,0.0,-0.91,0.31,0.14,0.0,2.0,-1.0,nga
59.0,7.0,137.0,91.0,68.0,17.0,0.0,0.0,-0.91,0.31,0.14,0.0,2.0,-1.0,nga
59.0,7.0,138.0,90.0,67.0,17.0,0.0,0.0,-0.92,0.32,0.14,0.0,2.0,-1.0,nga
62.0,7.0,138.0,91.0,67.0,17.0,0.0,0.0,-0.92,0.31,0.14,0.0,2.0,-2.0,nga
59.0,7.0,138.0,91.0,67.0,19.0,0.0,0.0,-0.92,0.31,0.14,0.0,2.0,-1.0,nga
59.0,7.0,138.0,91.0,68.0,19.0,0.0,0.0,-0.91,0.31,0.14,0.0,3.0,-1.0,nga
69.0,11.0,137.0,91.0,67.0,19.0,0.0,0.0,-0.91,0.31,0.14,-1.0,2.0,-1.0,nga
69.0,11.0,137.0,91.0,67.0,17.0,0.0,0.0,-0.91,0.31,0.13,-2.0,3.0,-1.0,nga
67.0,11.0,137.0,92.0,67.0,17.0,0.0,0.0,-0.91,0.31,0.14,-2.0,2.0,-1.0,nga
69.0,11.0,137.0,91.0,67.0,17.0,0.0,0.0,-0.91,0.31,0.13,-2.0,2.0,-1.0,nga
67.0,13.0,137.0,91.0,56.0,19.0,0.0,0.0,-0.91,0.31,0.13,-2.0,2.0,-1.0,nga
69.0,13.0,138.0,91.0,49.0,16.0,0.0,0.0,-0.91,0.31,0.13,-2.0,2.0,0.0,nga
69.0,13.0,137.0,91.0,49.0,16.0,0.0,0.0,-0.91,0.31,0.13,-3.0,2.0,0.0,nga
69.0,11.0,138.0,91.0,54.0,16.0,0.0,0.0,-0.91,0.31,0.13,-2.0,2.0,0.0,nga
69.0,13.0,138.0,91.0,54.0,16.0,0.0,0.0,-0.91,0.32,0.13,-4.0,2.0,-1.0,nga
72.0,13.0,138.0,91.0,54.0,16.0,0.0,0.0,-0.91,0.31,0.14,-3.0,1.0,-1.0,nga
67.0,8.0,138.0,91.0,54.0,16.0,0.0,0.0,-0.91,0.31,0.14,-3.0,2.0,0.0,nga
69.0,8.0,138.0,91.0,54.0,17.0,0.0,0.0,-0.91,0.31,0.14,-3.0,2.0,-1.0,nga
74.0,8.0,138.0,90.0,54.0,17.0,0.0,0.0,-0.91,0.31,0.14,-3.0,2.0,0.0,nga
74.0,8.0,138.0,90.0,54.0,16.0,0.0,0.0,-0.92,0.31,0.14,-3.0,2.0,0.0,nga
74.0,7.0,138.0,90.0,67.0,14.0,0.0,0.0,-0.91,0.31,0.14,-3.0,2.0,0.0,nga
74.0,7.0,138.0,90.0,65.0,14.0,0.0,0.0,-0.91,0.31,0.14,-3.0,2.0,-1.0,nga
74.0,7.0,138.0,90.0,65.0,14.0,0.0,0.0,-0.91,0.31,0.14,-1.0,2.0,0.0,nga
74.0,7.0,137.0,90.0,61.0,15.0,0.0,0.0,-0.91,0.31,0.14,-1.0,3.0,0.0,nga
77.0,7.0,137.0,91.0,60.0,14.0,0.0,0.0,-0.91,0.31,0.14,0.0,3.0,0.0,nga
72.0,5.0,137.0,91.0,58.0,15.0,0.0,0.0,-0.91,0.31,0.14,1.0,4.0,0.0,nga
69.0,5.0,137.0,91.0,58.0,12.0,0.0,0.0,-0.91,0.31,0.13,0.0,4.0,0.0,nga
72.0,5.0,137.0,90.0,56.0,14.0,0.0,0.0,-0.91,0.31,0.14,1.0,4.0,0.0,nga
64.0,4.0,137.0,90.0,60.0,14.0,0.0,0.0,-0.91,0.31,0.14,0.0,4.0,0.0,nga
62.0,4.0,137.0,90.0,60.0,14.0,0.0,0.0,-0.91,0.31,0.13,0.0,3.0,0.0,nga
62.0,4.0,137.0,90.0,60.0,16.0,0.0,0.0,-0.91,0.31,0.13,0.0,3.0,0.0,nga
62.0,5.0,137.0,90.0,60.0,16.0,0.0,0.0,-0.91,0.31,0.13,0.0,3.0,0.0,nga
62.0,5.0,136.0,89.0,60.0,16.0,0.0,0.0,-0.91,0.31,0.13,0.0,3.0,0.0,nga
64.0,5.0,137.0,89.0,61.0,15.0,0.0,0.0,-0.91,0.31,0.12,-1.0,3.0,-1.0,nga
62.0,5.0,137.0,89.0,61.0,15.0,0.0,0.0,-0.91,0.31,0.13,1.0,3.0,-1.0,nga
64.0,7.0,137.0,89.0,61.0,15.0,0.0,0.0,-0.92,0.31,0.12,0.0,4.0,-2.0,nga
67.0,10.0,137.0,90.0,60.0,16.0,0.0,0.0,-0.91,0.31,0.12,1.0,4.0,-3.0,nga
62.0,8.0,137.0,90.0,63.0,16.0,0.0,0.0,-0.91,0.31,0.12,2.0,5.0,-3.0,nga
67.0,10.0,138.0,90.0,61.0,16.0,0.0,0.0,-0.91,0.31,0.11,3.0,5.0,-2.0,nga
69.0,10.0,138.0,90.0,60.0,16.0,0.0,0.0,-0.91,0.31,0.11,3.0,6.0,-2.0,nga
69.0,10.0,137.0,90.0,60.0,16.0,0.0,0.0,-0.91,0.31,0.11,3.0,6.0,-3.0,nga
72.0,10.0,137.0,90.0,60.0,16.0,0.0,0.0,-0.92,0.31,0.11,4.0,5.0,-3.0,nga
72.0,10.0,138.0,91.0,60.0,15.0,0.0,0.0,-0.92,0.31,0.11,4.0,5.0,-2.0,nga
67.0,8.0,137.0,91.0,67.0,16.0,0.0,0.0,-0.92,0.31,0.1,4.0,5.0,-2.0,nga
67.0,7.0,137.0,91.0,67.0,16.0,0.0,0.0,-0.92,0.31,0.1,2.0,4.0,-2.0,nga
69.0,7.0,137.0,91.0,68.0,16.0,0.0,0.0,-0.92,0.31,0.1,2.0,2.0,-2.0,nga
64.0,5.0,137.0,91.0,67.0,15.0,0.0,0.0,-0.93,0.31,0.1,2.0,0.0,-2.0,nga
67.0,2.0,137.0,90.0,67.0,15.0,0.0,0.0,-0.92,0.31,0.1,0.0,-1.0,-2.0,nga
72.0,2.0,137.0,91.0,67.0,15.0,0.0,0.0,-0.93,0.31,0.11,-1.0,-3.0,-3.0,nga
67.0,2.0,137.0,91.0,67.0,16.0,0.0,0.0,-0.93,0.31,0.11,-2.0,-5.0,-4.0,nga
64.0,2.0,137.0,91.0,67.0,16.0,0.0,0.0,-0.93,0.3,0.12,-3.0,-5.0,-4.0,nga
64.0,5.0,136.0,92.0,67.0,17.0,0.0,0.0,-0.93,0.3,0.13,-2.0,-4.0,-4.0,nga
59.0,7.0,136.0,92.0,68.0,17.0,0.0,0.0,-0.93,0.29,0.13,-3.0,-4.0,-4.0,nga
62.0,7.0,136.0,91.0,61.0,17.0,0.0,0.0,-0.92,0.29,0.14,-2.0,-3.0,-3.0,nga
62.0,8.0,137.0,91.0,61.0,17.0,0.0,0.0,-0.92,0.28,0.14,0.0,0.0,-2.0,nga
59.0,8.0,137.0,91.0,61.0,17.0,0.0,0.0,-0.92,0.28,0.14,0.0,2.0,-1.0,nga
62.0,8.0,137.0,91.0,63.0,17.0,0.0,0.0,-0.92,0.28,0.14,0.0,5.0,0.0,nga
62.0,13.0,137.0,92.0,65.0,19.0,0.0,0.0,-0.93,0.28,0.14,0.0,5.0,1.0,nga
57.0,13.0,136.0,92.0,67.0,19.0,0.0,0.0,-0.92,0.29,0.13,1.0,6.0,1.0,nga
59.0,14.0,136.0,92.0,67.0,17.0,0.0,0.0,-0.93,0.29,0.13,0.0,7.0,2.0,nga
64.0,16.0,136.0,90.0,65.0,17.0,0.0,0.0,-0.92,0.29,0.12,1.0,7.0,2.0,nga
64.0,8.0,136.0,90.0,65.0,16.0,0.0,0.0,-0.92,0.3,0.12,0.0,7.0,1.0,nga
67.0,8.0,136.0,90.0,63.0,17.0,0.0,0.0,-0.93,0.3,0.12,0.0,7.0,1.0,nga
67.0,7.0,136.0,91.0,56.0,17.0,0.0,0.0,-0.93,0.3,0.12,0.0,5.0,0.0,nga
64.0,7.0,137.0,90.0,56.0,17.0,0.0,0.0,-0.93,0.3,0.11,-3.0,4.0,-1.0,nga
67.0,8.0,137.0,90.0,56.0,17.0,0.0,0.0,-0.93,0.3,0.11,-3.0,2.0,-1.0,nga
69.0,7.0,137.0,90.0,54.0,16.0,0.0,0.0,-0.92,0.3,0.12,-2.0,1.0,0.0,nga
67.0,5.0,137.0,90.0,51.0,17.0,0.0,0.0,-0.92,0.3,0.12,-2.0,1.0,0.0,nga
67.0,5.0,137.0,90.0,53.0,16.0,0.0,0.0,-0.92,0.29,0.12,-2.0,1.0,0.0,nga
62.0,2.0,138.0,90.0,53.0,16.0,0.0,0.0,-0.92,0.3,0.12,-2.0,1.0,0.0,nga
59.0,2.0,137.0,91.0,53.0,16.0,0.0,0.0,-0.92,0.29,0.13,-1.0,1.0,0.0,nga
59.0,5.0,137.0,91.0,53.0,16.0,0.0,0.0,-0.92,0.3,0.12,-1.0,1.0,1.0,nga
59.0,5.0,137.0,91.0,54.0,16.0,0.0,0.0,-0.92,0.3,0.12,0.0,1.0,0.0,nga
59.0,5.0,136.0,91.0,58.0,16.0,0.0,0.0,-0.92,0.3,0.12,-1.0,1.0,0.0,nga
64.0,7.0,135.0,91.0,58.0,16.0,0.0,0.0,-0.92,0.3,0.12,0.0,1.0,0.0,nga
64.0,5.0,135.0,91.0,60.0,16.0,0.0,0.0,-0.92,0.3,0.12,0.0,1.0,1.0,nga
62.0,5.0,135.0,90.0,61.0,16.0,0.0,0.0,-0.91,0.3,0.12,-2.0,2.0,0.0,nga
67.0,5.0,135.0,90.0,61.0,14.0,0.0,0.0,-0.91,0.3,0.12,-1.0,2.0,0.0,nga
69.0,5.0,135.0,90.0,60.0,15.0,0.0,0.0,-0.92,0.3,0.12,-3.0,2.0,0.0,nga
72.0,4.0,135.0,90.0,63.0,16.0,0.0,0.0,-0.91,0.3,0.12,-2.0,1.0,-1.0,nga
72.0,4.0,135.0,90.0,63.0,15.0,0.0,0.0,-0.91,0.3,0.12,-2.0,1.0,-1.0,nga
69.0,4.0,135.0,90.0,61.0,16.0,0.0,0.0,-0.91,0.29,0.12,-3.0,1.0,-2.0,nga
69.0,5.0,135.0,90.0,63.0,15.0,0.0,0.0,-0.92,0.29,0.12,-1.0,2.0,-1.0,nga
69.0,5.0,136.0,91.0,63.0,15.0,0.0,0.0,-0.92,0.29,0.12,-2.0,2.0,-1.0,nga
69.0,4.0,136.0,91.0,58.0,12.0,0.0,0.0,-0.92,0.29,0.12,-1.0,2.0,-1.0,nga
64.0,5.0,137.0,91.0,60.0,11.0,0.0,0.0,-0.92,0.29,0.11,-2.0,2.0,-2.0,nga
69.0,7.0,137.0,91.0,58.0,12.0,0.0,0.0,-0.92,0.29,0.12,-1.0,2.0,-2.0,nga
62.0,4.0,136.0,91.0,56.0,12.0,0.0,0.0,-0.92,0.29,0.12,-1.0,3.0,-2.0,nga
59.0,5.0,136.0,91.0,58.0,12.0,0.0,0.0,-0.92,0.29,0.12,0.0,3.0,0.0,nga
67.0,5.0,136.0,91.0,53.0,11.0,0.0,0.0,-0.92,0.29,0.12,0.0,3.0,0.0,nga
67.0,7.0,136.0,91.0,53.0,12.0,0.0,0.0,-0.92,0.29,0.11,0.0,4.0,0.0,nga
64.0,7.0,137.0,91.0,53.0,12.0,0.0,0.0,-0.92,0.29,0.11,0.0,3.0,0.0,nga
67.0,7.0,137.0,91.0,47.0,12.0,0.0,0.0,-0.92,0.29,0.11,-1.0,3.0,-1.0,nga
67.0,7.0,136.0,90.0,47.0,8.0,0.0,0.0,-0.92,0.29,0.11,-1.0,3.0,-1.0,nga
67.0,7.0,136.0,90.0,53.0,11.0,0.0,0.0,-0.92,0.29,0.11,-1.0,3.0,-2.0,nga
72.0,5.0,136.0,90.0,51.0,11.0,0.0,0.0,-0.93,0.29,0.11,0.0,2.0,-2.0,nga
67.0,5.0,134.0,91.0,51.0,11.0,0.0,0.0,-0.93,0.29,0.12,2.0,2.0,-3.0,nga
89.0,7.0,134.0,91.0,53.0,12.0,0.0,0.0,-0.92,0.29,0.12,3.0,1.0,-3.0,nga
89.0,5.0,134.0,91.0,53.0,12.0,0.0,0.0,-0.92,0.29,0.12,4.0,1.0,-3.0,nga
84.0,5.0,134.0,91.0,53.0,14.0,0.0,0.0,-0.92,0.29,0.11,3.0,2.0,-2.0,nga
84.0,7.0,133.0,91.0,53.0,12.0,0.0,0.0,-0.93,0.29,0.11,2.0,1.0,-3.0,nga
87.0,5.0,133.0,91.0,54.0,12.0,0.0,0.0,-0.93,0.29,0.11,2.0,1.0,-3.0,nga
84.0,5.0,133.0,92.0,56.0,12.0,0.0,0.0,-0.92,0.28,0.11,1.0,1.0,-3.0,nga
82.0,1.0,133.0,92.0,58.0,17.0,0.0,0.0,-0.92,0.28,0.11,2.0,0.0,-3.0,nga
82.0,4.0,133.0,92.0,58.0,17.0,0.0,0.0,-0.92,0.28,0.11,1.0,0.0,-2.0,nga
79.0,4.0,133.0,92.0,58.0,19.0,0.0,0.0,-0.92,0.28,0.12,2.0,0.0,-1.0,nga
79.0,5.0,134.0,92.0,56.0,19.0,0.0,0.0,-0.92,0.28,0.11,0.0,-1.0,0.0,nga
47.0,5.0,134.0,92.0,58.0,17.0,0.0,0.0,-0.93,0.28,0.11,-1.0,-3.0,-1.0,nga
47.0,5.0,134.0,92.0,56.0,17.0,0.0,0.0,-0.93,0.28,0.12,-3.0,-2.0,-2.0,nga
44.0,7.0,133.0,92.0,56.0,17.0,0.0,0.0,-0.93,0.27,0.12,-2.0,-1.0,-1.0,nga
49.0,5.0,136.0,92.0,54.0,19.0,0.0,0.0,-0.92,0.27,0.13,-1.0,1.0,0.0,nga
47.0,5.0,134.0,92.0,53.0,19.0,0.0,0.0,-0.92,0.28,0.13,-1.0,4.0,2.0,nga
47.0,5.0,134.0,92.0,54.0,17.0,0.0,0.0,-0.92,0.28,0.12,0.0,7.0,3.0,nga
52.0,10.0,134.0,92.0,54.0,16.0,0.0,0.0,-0.92,0.29,0.12,0.0,9.0,4.0,nga
52.0,8.0,134.0,92.0,56.0,16.0,0.0,0.0,-0.93,0.29,0.11,0.0,10.0,4.0,nga
52.0,8.0,134.0,92.0,68.0,15.0,0.0,0.0,-0.92,0.3,0.1,-2.0,11.0,4.0,nga
49.0,7.0,134.0,92.0,70.0,14.0,0.0,0.0,-0.92,0.3,0.1,-3.0,13.0,3.0,nga
62.0,7.0,134.0,92.0,68.0,14.0,0.0,0.0,-0.92,0.3,0.09,-4.0,15.0,4.0,nga
62.0,7.0,134.0,92.0,68.0,14.0,0.0,0.0,-0.92,0.3,0.08,-5.0,14.0,3.0,nga
67.0,7.0,134.0,92.0,68.0,14.0,0.0,0.0,-0.92,0.31,0.07,-6.0,12.0,1.0,nga
64.0,7.0,133.0,92.0,70.0,14.0,0.0,0.0,-0.92,0.31,0.07,-5.0,9.0,0.0,nga
62.0,7.0,134.0,91.0,72.0,14.0,0.0,0.0,-0.93,0.31,0.06,-4.0,5.0,-3.0,nga
34.0,8.0,135.0,91.0,72.0,14.0,0.0,0.0,-0.93,0.31,0.06,-2.0,0.0,-6.0,nga
32.0,8.0,135.0,91.0,70.0,15.0,0.0,0.0,-0.93,0.3,0.07,0.0,-4.0,-8.0,nga
29.0,8.0,135.0,91.0,68.0,15.0,0.0,0.0,-0.93,0.29,0.07,1.0,-8.0,-10.0,nga
32.0,7.0,135.0,92.0,56.0,16.0,0.0,0.0,-0.93,0.29,0.08,3.0,-10.0,-11.0,nga
19.0,8.0,135.0,93.0,56.0,16.0,0.0,0.0,-0.94,0.28,0.09,5.0,-12.0,-12.0,nga
19.0,8.0,135.0,93.0,58.0,19.0,0.0,0.0,-0.93,0.27,0.09,9.0,-15.0,-13.0,nga
19.0,8.0,135.0,93.0,60.0,19.0,0.0,0.0,-0.93,0.27,0.1,10.0,-14.0,-13.0,nga
14.0,8.0,135.0,93.0,60.0,20.0,0.0,0.0,-0.93,0.26,0.11,11.0,-14.0,-12.0,nga
17.0,8.0,136.0,93.0,60.0,19.0,0.0,0.0,-0.93,0.26,0.12,10.0,-13.0,-11.0,nga
22.0,8.0,136.0,94.0,58.0,20.0,0.0,0.0,-0.93,0.25,0.13,9.0,-11.0,-10.0,nga
49.0,5.0,136.0,94.0,58.0,20.0,0.0,0.0,-0.93,0.24,0.14,7.0,-9.0,-9.0,nga
49.0,5.0,136.0,93.0,60.0,19.0,0.0,0.0,-0.93,0.24,0.14,4.0,-6.0,-7.0,nga
52.0,5.0,135.0,93.0,60.0,20.0,0.0,0.0,-0.93,0.24,0.15,3.0,-3.0,-5.0,nga
49.0,7.0,136.0,92.0,56.0,21.0,0.0,0.0,-0.93,0.24,0.15,0.0,-2.0,-4.0,nga
64.0,5.0,135.0,92.0,56.0,22.0,0.0,0.0,-0.93,0.24,0.15,-1.0,0.0,-3.0,nga
67.0,7.0,136.0,91.0,54.0,20.0,0.0,0.0,-0.93,0.24,0.16,-4.0,3.0,-1.0,nga
67.0,7.0,136.0,91.0,47.0,20.0,0.0,0.0,-0.93,0.23,0.16,-3.0,4.0,0.0,nga
67.0,7.0,136.0,91.0,49.0,20.0,0.0,0.0,-0.93,0.24,0.15,-5.0,5.0,0.0,nga
64.0,8.0,135.0,91.0,49.0,20.0,0.0,0.0,-0.94,0.23,0.15,-5.0,5.0,0.0,nga
62.0,8.0,135.0,90.0,47.0,19.0,0.0,0.0,-0.94,0.24,0.15,-5.0,4.0,1.0,nga
62.0,8.0,134.0,90.0,47.0,19.0,0.0,0.0,-0.94,0.23,0.14,-7.0,5.0,1.0,nga
64.0,8.0,135.0,91.0,44.0,20.0,0.0,0.0,-0.94,0.24,0.15,-5.0,3.0,1.0,nga
57.0,10.0,135.0,91.0,45.0,19.0,0.0,0.0,-0.94,0.23,0.15,-7.0,4.0,1.0,nga
59.0,8.0,135.0,91.0,47.0,16.0,0.0,0.0,-0.93,0.23,0.15,-7.0,3.0,1.0,nga
59.0,10.0,136.0,91.0,47.0,16.0,0.0,0.0,-0.93,0.23,0.15,-8.0,4.0,1.0,nga
57.0,8.0,136.0,91.0,49.0,15.0,0.0,0.0,-0.93,0.23,0.14,-7.0,3.0,1.0,nga
59.0,10.0,136.0,91.0,53.0,15.0,0.0,0.0,-0.93,0.23,0.14,-7.0,4.0,1.0,nga
62.0,8.0,136.0,91.0,51.0,15.0,0.0,0.0,-0.93,0.23,0.14,-7.0,3.0,1.0,nga
59.0,8.0,136.0,91.0,53.0,15.0,0.0,0.0,-0.93,0.24,0.15,-7.0,3.0,1.0,nga
62.0,8.0,136.0,91.0,56.0,15.0,0.0,0.0,-0.93,0.24,0.15,-7.0,3.0,1.0,nga
