idxUp,idxLow,midUp,midLow,ringUp,ringLow,thumb,pinky,ax,ay,az,gx,gy,gz,label
0.0,25.0,150.0,124.0,125.0,76.0,30.0,146.0,-0.03,0.94,0.33,-3.0,3.0,4.0,ka
0.0,25.0,149.0,122.0,121.0,72.0,37.0,139.0,-0.03,0.94,0.33,-2.0,2.0,3.0,ka
0.0,25.0,147.0,121.0,111.0,67.0,39.0,127.0,-0.03,0.94,0.33,-3.0,3.0,2.0,ka
0.0,25.0,145.0,119.0,102.0,63.0,39.0,124.0,-0.02,0.94,0.33,-3.0,3.0,2.0,ka
0.0,25.0,143.0,117.0,91.0,58.0,35.0,116.0,-0.02,0.94,0.33,-3.0,3.0,1.0,ka
0.0,23.0,141.0,114.0,83.0,52.0,34.0,109.0,-0.02,0.94,0.33,-3.0,3.0,0.0,ka
0.0,23.0,139.0,112.0,74.0,48.0,34.0,104.0,-0.02,0.94,0.33,-3.0,3.0,0.0,ka
0.0,23.0,138.0,110.0,70.0,43.0,34.0,94.0,-0.02,0.94,0.33,-3.0,3.0,0.0,ka
0.0,25.0,136.0,108.0,63.0,38.0,34.0,87.0,-0.02,0.94,0.33,-2.0,4.0,0.0,ka
0.0,23.0,135.0,107.0,54.0,34.0,34.0,82.0,-0.03,0.94,0.33,-3.0,4.0,0.0,ka
0.0,23.0,133.0,107.0,54.0,34.0,32.0,80.0,-0.03,0.94,0.34,-3.0,4.0,1.0,ka
0.0,22.0,134.0,107.0,56.0,33.0,25.0,84.0,-0.03,0.93,0.34,-3.0,4.0,1.0,ka
0.0,22.0,134.0,108.0,56.0,33.0,25.0,85.0,-0.03,0.94,0.34,-2.0,4.0,2.0,ka
0.0,22.0,134.0,108.0,56.0,31.0,25.0,84.0,-0.03,0.94,0.34,-3.0,4.0,2.0,ka
0.0,20.0,134.0,107.0,54.0,33.0,25.0,84.0,-0.03,0.93,0.34,-3.0,4.0,2.0,ka
0.0,19.0,134.0,107.0,54.0,33.0,25.0,84.0,-0.03,0.94,0.34,-3.0,4.0,2.0,ka
0.0,19.0,134.0,107.0,56.0,33.0,25.0,84.0,-0.03,0.94,0.34,-3.0,4.0,1.0,ka
0.0,19.0,134.0,107.0,49.0,33.0,27.0,84.0,-0.03,0.94,0.34,-2.0,4.0,1.0,ka
0.0,19.0,134.0,107.0,44.0,33.0,25.0,84.0,-0.03,0.93,0.34,-4.0,3.0,1.0,ka
0.0,19.0,133.0,105.0,45.0,33.0,25.0,84.0,-0.03,0.93,0.35,-4.0,3.0,1.0,ka
0.0,19.0,134.0,106.0,45.0,31.0,25.0,84.0,-0.03,0.94,0.35,-4.0,3.0,0.0,ka
0.0,19.0,134.0,106.0,44.0,33.0,25.0,82.0,-0.03,0.93,0.35,-4.0,3.0,0.0,ka
0.0,19.0,134.0,104.0,45.0,31.0,25.0,82.0,-0.02,0.93,0.34,-4.0,3.0,0.0,ka
0.0,19.0,134.0,104.0,45.0,31.0,23.0,82.0,-0.02,0.93,0.35,-3.0,3.0,0.0,ka
0.0,20.0,134.0,104.0,47.0,31.0,27.0,82.0,-0.02,0.93,0.35,-4.0,3.0,0.0,ka
0.0,22.0,133.0,104.0,45.0,31.0,27.0,80.0,-0.02,0.93,0.36,-4.0,3.0,0.0,ka
0.0,22.0,133.0,103.0,47.0,33.0,27.0,82.0,-0.02,0.93,0.36,-4.0,3.0,0.0,ka
0.0,23.0,133.0,103.0,49.0,31.0,25.0,82.0,-0.02,0.93,0.36,-4.0,3.0,0.0,ka
0.0,25.0,134.0,103.0,53.0,34.0,27.0,82.0,-0.02,0.93,0.36,-3.0,3.0,0.0,ka
0.0,23.0,134.0,103.0,51.0,34.0,27.0,80.0,-0.02,0.93,0.36,-4.0,3.0,0.0,ka
0.0,23.0,134.0,103.0,53.0,34.0,27.0,80.0,-0.01,0.93,0.36,-3.0,3.0,0.0,ka
0.0,25.0,134.0,102.0,53.0,34.0,32.0,80.0,-0.02,0.93,0.36,-4.0,3.0,0.0,ka
0.0,23.0,134.0,103.0,53.0,34.0,34.0,77.0,-0.02,0.94,0.37,-4.0,4.0,0.0,ka
0.0,23.0,133.0,103.0,53.0,30.0,34.0,79.0,-0.02,0.94,0.37,-3.0,4.0,1.0,ka
0.0,22.0,133.0,103.0,53.0,30.0,32.0,77.0,-0.02,0.94,0.37,-3.0,3.0,1.0,ka
0.0,20.0,133.0,103.0,54.0,29.0,34.0,79.0,-0.02,0.93,0.36,-2.0,4.0,2.0,ka
0.0,20.0,132.0,105.0,54.0,29.0,32.0,79.0,-0.02,0.93,0.36,-2.0,4.0,2.0,ka
0.0,19.0,132.0,104.0,53.0,29.0,32.0,72.0,-0.01,0.93,0.37,-2.0,4.0,3.0,ka
0.0,17.0,132.0,104.0,56.0,25.0,30.0,72.0,-0.01,0.93,0.37,-3.0,4.0,2.0,ka
0.0,17.0,132.0,104.0,58.0,25.0,40.0,74.0,-0.01,0.93,0.37,-2.0,4.0,2.0,ka
0.0,19.0,132.0,104.0,54.0,25.0,40.0,74.0,-0.01,0.92,0.37,-2.0,4.0,2.0,ka
0.0,17.0,132.0,104.0,53.0,25.0,35.0,63.0,-0.0,0.93,0.37,-2.0,4.0,2.0,ka
0.0,17.0,131.0,104.0,53.0,26.0,34.0,67.0,-0.0,0.92,0.37,-2.0,3.0,2.0,ka
0.0,17.0,131.0,103.0,53.0,29.0,34.0,67.0,-0.0,0.92,0.37,-2.0,3.0,1.0,ka
0.0,20.0,131.0,104.0,53.0,28.0,32.0,69.0,-0.0,0.92,0.37,-2.0,3.0,1.0,ka
0.0,20.0,131.0,104.0,51.0,31.0,32.0,69.0,-0.0,0.92,0.37,-1.0,2.0,1.0,ka
0.0,20.0,132.0,102.0,49.0,33.0,32.0,69.0,0.0,0.92,0.37,-1.0,2.0,0.0,ka
0.0,20.0,132.0,102.0,47.0,33.0,35.0,74.0,-0.0,0.93,0.37,0.0,2.0,0.0,ka
0.0,20.0,130.0,102.0,42.0,33.0,37.0,72.0,-0.0,0.93,0.37,0.0,2.0,0.0,ka
0.0,20.0,130.0,102.0,44.0,31.0,27.0,72.0,0.0,0.93,0.36,0.0,1.0,0.0,ka
0.0,19.0,130.0,102.0,47.0,31.0,27.0,72.0,0.0,0.93,0.36,0.0,1.0,0.0,ka
0.0,20.0,129.0,102.0,47.0,31.0,27.0,80.0,0.0,0.93,0.36,0.0,1.0,0.0,ka
0.0,19.0,130.0,101.0,47.0,29.0,25.0,79.0,0.0,0.93,0.36,0.0,2.0,0.0,ka
0.0,19.0,130.0,102.0,45.0,29.0,25.0,75.0,0.0,0.93,0.36,0.0,1.0,0.0,ka
0.0,17.0,130.0,101.0,47.0,29.0,27.0,75.0,0.0,0.93,0.36,0.0,2.0,0.0,ka
0.0,16.0,130.0,101.0,49.0,24.0,27.0,75.0,0.0,0.93,0.36,-1.0,2.0,0.0,ka
0.0,17.0,130.0,101.0,42.0,24.0,27.0,74.0,0.0,0.93,0.36,-1.0,2.0,0.0,ka
0.0,17.0,130.0,100.0,42.0,24.0,23.0,75.0,0.0,0.93,0.36,-2.0,2.0,0.0,ka
0.0,17.0,131.0,100.0,42.0,25.0,20.0,77.0,0.0,0.93,0.36,-2.0,3.0,0.0,ka
0.0,17.0,131.0,100.0,40.0,25.0,18.0,75.0,0.0,0.93,0.36,-3.0,3.0,0.0,ka
0.0,17.0,134.0,100.0,38.0,25.0,18.0,75.0,0.0,0.93,0.36,-3.0,4.0,0.0,ka
0.0,17.0,135.0,100.0,26.0,25.0,18.0,74.0,0.01,0.93,0.37,-5.0,5.0,0.0,ka
0.0,19.0,134.0,100.0,28.0,28.0,18.0,72.0,0.0,0.93,0.37,-6.0,6.0,0.0,ka
0.0,14.0,134.0,100.0,28.0,28.0,13.0,74.0,0.0,0.94,0.38,-8.0,7.0,0.0,ka
0.0,17.0,134.0,100.0,28.0,29.0,11.0,74.0,0.0,0.93,0.38,-11.0,9.0,-1.0,ka
0.0,19.0,134.0,101.0,26.0,29.0,11.0,72.0,-0.0,0.93,0.39,-13.0,9.0,-1.0,ka
0.0,19.0,134.0,101.0,31.0,31.0,11.0,72.0,-0.0,0.92,0.4,-14.0,9.0,0.0,ka
0.0,19.0,134.0,101.0,35.0,31.0,11.0,74.0,-0.0,0.92,0.41,-15.0,10.0,0.0,ka
0.0,17.0,134.0,101.0,35.0,31.0,11.0,74.0,-0.01,0.92,0.42,-16.0,10.0,0.0,ka
0.0,17.0,135.0,101.0,35.0,31.0,13.0,74.0,-0.01,0.91,0.43,-16.0,9.0,0.0,ka
0.0,19.0,132.0,100.0,38.0,30.0,13.0,72.0,-0.01,0.9,0.45,-15.0,9.0,1.0,ka
0.0,17.0,132.0,100.0,51.0,30.0,13.0,74.0,-0.01,0.9,0.45,-11.0,7.0,1.0,ka
0.0,16.0,132.0,100.0,49.0,31.0,11.0,75.0,-0.01,0.9,0.46,-8.0,6.0,1.0,ka
0.0,20.0,132.0,100.0,47.0,31.0,25.0,75.0,-0.01,0.9,0.46,-3.0,4.0,2.0,ka
0.0,20.0,132.0,100.0,45.0,31.0,25.0,75.0,-0.0,0.9,0.46,2.0,2.0,2.0,ka
0.0,20.0,132.0,100.0,47.0,31.0,25.0,77.0,0.0,0.91,0.45,6.0,1.0,2.0,ka
0.0,20.0,132.0,99.0,49.0,30.0,27.0,79.0,0.01,0.91,0.44,8.0,0.0,2.0,ka
0.0,20.0,132.0,99.0,47.0,29.0,30.0,75.0,0.01,0.91,0.43,11.0,-1.0,2.0,ka
0.0,20.0,132.0,99.0,47.0,30.0,30.0,74.0,0.01,0.92,0.42,13.0,-2.0,1.0,ka
0.0,20.0,130.0,99.0,47.0,30.0,30.0,77.0,0.01,0.92,0.41,14.0,-2.0,1.0,ka
0.0,20.0,131.0,100.0,45.0,30.0,32.0,77.0,0.01,0.93,0.39,14.0,-2.0,0.0,ka
0.0,20.0,130.0,100.0,44.0,30.0,34.0,79.0,0.01,0.94,0.38,12.0,-2.0,0.0,ka
0.0,23.0,131.0,101.0,44.0,31.0,37.0,80.0,0.01,0.94,0.37,11.0,-2.0,0.0,ka
0.0,22.0,131.0,101.0,42.0,31.0,29.0,80.0,0.01,0.94,0.36,8.0,-1.0,0.0,ka
0.0,22.0,130.0,101.0,44.0,31.0,29.0,79.0,0.02,0.94,0.36,8.0,-1.0,0.0,ka
0.0,20.0,130.0,101.0,44.0,33.0,32.0,79.0,0.02,0.94,0.35,7.0,-1.0,-1.0,ka
0.0,23.0,130.0,101.0,44.0,33.0,30.0,79.0,0.01,0.94,0.34,8.0,0.0,-1.0,ka
0.0,22.0,130.0,101.0,45.0,33.0,29.0,80.0,0.01,0.94,0.34,7.0,-1.0,-2.0,ka
0.0,23.0,130.0,101.0,45.0,31.0,27.0,79.0,0.02,0.94,0.34,8.0,0.0,-2.0,ka
0.0,22.0,130.0,101.0,44.0,30.0,29.0,87.0,0.02,0.95,0.33,8.0,-1.0,-2.0,ka
0.0,22.0,130.0,100.0,44.0,30.0,27.0,87.0,0.02,0.95,0.32,9.0,-1.0,-2.0,ka
0.0,23.0,130.0,100.0,45.0,30.0,27.0,90.0,0.02,0.95,0.31,9.0,-2.0,-2.0,ka
0.0,22.0,129.0,100.0,47.0,29.0,23.0,87.0,0.02,0.95,0.31,9.0,-3.0,-2.0,ka
0.0,25.0,129.0,100.0,45.0,29.0,25.0,87.0,0.02,0.96,0.3,7.0,-2.0,-2.0,ka
0.0,25.0,129.0,100.0,45.0,28.0,25.0,90.0,0.02,0.96,0.29,5.0,-2.0,-2.0,ka
0.0,25.0,129.0,100.0,45.0,25.0,23.0,90.0,0.02,0.96,0.28,2.0,0.0,-2.0,ka
0.0,23.0,130.0,100.0,40.0,25.0,23.0,90.0,0.03,0.97,0.28,1.0,0.0,-2.0,ka
0.0,23.0,129.0,100.0,42.0,22.0,23.0,87.0,0.03,0.97,0.28,-1.0,1.0,-3.0,ka
0.0,23.0,130.0,100.0,42.0,22.0,23.0,89.0,0.02,0.97,0.27,-5.0,3.0,-3.0,ka
0.0,25.0,130.0,101.0,42.0,22.0,23.0,79.0,0.02,0.96,0.27,-6.0,4.0,-2.0,ka
0.0,25.0,129.0,100.0,38.0,22.0,25.0,80.0,0.02,0.96,0.28,-8.0,4.0,-3.0,ka
0.0,23.0,130.0,101.0,38.0,22.0,25.0,74.0,0.02,0.96,0.28,-9.0,7.0,-3.0,ka
0.0,22.0,130.0,100.0,38.0,22.0,23.0,75.0,0.01,0.95,0.29,-10.0,8.0,-3.0,ka
0.0,20.0,130.0,100.0,40.0,22.0,25.0,75.0,0.0,0.95,0.28,-9.0,9.0,-3.0,ka
0.0,20.0,130.0,100.0,38.0,21.0,23.0,74.0,0.0,0.95,0.29,-11.0,10.0,-2.0,ka
0.0,19.0,130.0,101.0,35.0,21.0,25.0,75.0,0.0,0.95,0.3,-9.0,10.0,-1.0,ka
0.0,19.0,130.0,101.0,38.0,20.0,23.0,69.0,-0.0,0.94,0.31,-10.0,11.0,0.0,ka
0.0,19.0,129.0,101.0,38.0,24.0,18.0,72.0,-0.01,0.94,0.31,-9.0,11.0,0.0,ka
0.0,19.0,129.0,101.0,37.0,24.0,20.0,70.0,0.0,0.95,0.32,-9.0,11.0,0.0,ka
0.0,19.0,129.0,101.0,37.0,25.0,22.0,70.0,-0.0,0.94,0.33,-8.0,13.0,0.0,ka
0.0,20.0,130.0,101.0,38.0,25.0,20.0,67.0,-0.01,0.94,0.34,-7.0,13.0,1.0,ka
0.0,20.0,130.0,100.0,40.0,24.0,20.0,67.0,-0.01,0.94,0.34,-7.0,11.0,1.0,ka
0.0,20.0,130.0,100.0,42.0,24.0,22.0,69.0,-0.01,0.94,0.35,-6.0,10.0,1.0,ka
0.0,20.0,130.0,100.0,42.0,24.0,18.0,69.0,-0.01,0.93,0.36,-6.0,8.0,1.0,ka
0.0,23.0,130.0,100.0,38.0,26.0,18.0,69.0,-0.0,0.94,0.36,-5.0,8.0,1.0,ka
0.0,23.0,129.0,99.0,42.0,26.0,17.0,69.0,-0.01,0.93,0.36,-4.0,11.0,0.0,ka
0.0,23.0,129.0,99.0,40.0,26.0,18.0,72.0,-0.01,0.93,0.37,-2.0,9.0,0.0,ka
0.0,22.0,130.0,99.0,58.0,26.0,23.0,72.0,-0.01,0.92,0.36,-2.0,9.0,0.0,ka
0.0,22.0,131.0,98.0,58.0,26.0,22.0,72.0,-0.03,0.91,0.36,0.0,7.0,0.0,ka
0.0,20.0,131.0,98.0,58.0,26.0,20.0,74.0,-0.03,0.91,0.35,0.0,4.0,0.0,ka
0.0,20.0,130.0,98.0,60.0,26.0,22.0,72.0,-0.03,0.91,0.35,0.0,3.0,1.0,ka
0.0,20.0,130.0,98.0,53.0,26.0,20.0,74.0,-0.03,0.91,0.34,0.0,3.0,1.0,ka
0.0,20.0,130.0,98.0,51.0,26.0,20.0,77.0,-0.02,0.91,0.34,-1.0,4.0,1.0,ka
0.0,20.0,130.0,98.0,49.0,28.0,20.0,75.0,-0.02,0.91,0.34,0.0,5.0,0.0,ka
0.0,19.0,130.0,98.0,53.0,28.0,20.0,75.0,-0.03,0.9,0.34,0.0,5.0,0.0,ka
0.0,19.0,131.0,98.0,53.0,28.0,20.0,75.0,-0.03,0.9,0.33,0.0,2.0,0.0,ka
0.0,17.0,131.0,98.0,56.0,28.0,20.0,77.0,-0.04,0.91,0.33,-1.0,2.0,0.0,ka
0.0,20.0,132.0,99.0,37.0,26.0,20.0,77.0,-0.03,0.91,0.34,-2.0,0.0,1.0,ka
0.0,20.0,130.0,99.0,37.0,28.0,18.0,79.0,-0.03,0.91,0.35,-2.0,0.0,1.0,ka
0.0,22.0,130.0,99.0,37.0,28.0,18.0,79.0,-0.02,0.93,0.35,0.0,0.0,1.0,ka
0.0,20.0,130.0,98.0,35.0,28.0,17.0,79.0,-0.01,0.93,0.35,0.0,0.0,1.0,ka
0.0,20.0,130.0,99.0,42.0,28.0,17.0,79.0,-0.01,0.94,0.35,0.0,0.0,1.0,ka
0.0,20.0,130.0,99.0,42.0,25.0,10.0,74.0,0.0,0.95,0.36,0.0,0.0,1.0,ka
0.0,19.0,129.0,98.0,44.0,24.0,10.0,75.0,0.0,0.95,0.36,-2.0,-2.0,2.0,ka
0.0,19.0,129.0,98.0,44.0,24.0,11.0,74.0,0.01,0.96,0.36,-2.0,-2.0,2.0,ka
0.0,19.0,129.0,98.0,44.0,24.0,11.0,72.0,0.01,0.96,0.37,-4.0,-3.0,3.0,ka
0.0,19.0,129.0,98.0,42.0,25.0,10.0,70.0,0.03,0.96,0.37,-6.0,-2.0,3.0,ka
0.0,20.0,128.0,97.0,42.0,24.0,13.0,70.0,0.03,0.97,0.37,-8.0,2.0,2.0,ka
0.0,19.0,128.0,98.0,42.0,24.0,17.0,70.0,0.03,0.96,0.38,-12.0,3.0,2.0,ka
0.0,20.0,129.0,97.0,42.0,22.0,20.0,70.0,0.03,0.96,0.39,-15.0,3.0,3.0,ka
0.0,19.0,128.0,97.0,42.0,22.0,22.0,72.0,0.03,0.95,0.4,-16.0,5.0,3.0,ka
0.0,19.0,129.0,97.0,40.0,22.0,22.0,72.0,0.02,0.94,0.41,-16.0,6.0,2.0,ka
0.0,19.0,129.0,97.0,38.0,28.0,29.0,72.0,0.01,0.92,0.4,-14.0,6.0,3.0,ka
0.0,19.0,130.0,98.0,38.0,28.0,29.0,72.0,0.01,0.92,0.4,-13.0,6.0,3.0,ka
0.0,19.0,129.0,98.0,40.0,28.0,30.0,72.0,0.01,0.9,0.4,-11.0,7.0,2.0,ka
0.0,20.0,132.0,98.0,40.0,26.0,30.0,74.0,0.02,0.9,0.41,-7.0,7.0,1.0,ka
0.0,20.0,133.0,99.0,37.0,28.0,27.0,75.0,0.01,0.9,0.41,-4.0,7.0,0.0,ka
0.0,16.0,133.0,99.0,37.0,29.0,22.0,74.0,0.01,0.9,0.4,0.0,6.0,0.0,ka
0.0,20.0,133.0,99.0,40.0,29.0,20.0,72.0,0.0,0.9,0.4,3.0,5.0,-2.0,ka
0.0,19.0,132.0,99.0,42.0,29.0,13.0,72.0,-0.0,0.9,0.39,5.0,6.0,-3.0,ka
0.0,20.0,132.0,99.0,40.0,29.0,10.0,70.0,0.0,0.91,0.38,6.0,5.0,-3.0,ka
0.0,19.0,132.0,99.0,40.0,30.0,10.0,70.0,0.0,0.91,0.38,6.0,6.0,-4.0,ka
0.0,17.0,132.0,99.0,49.0,28.0,8.0,70.0,0.0,0.92,0.38,5.0,8.0,-5.0,ka
0.0,17.0,131.0,99.0,49.0,28.0,8.0,70.0,0.0,0.92,0.39,3.0,9.0,-5.0,ka
0.0,17.0,131.0,99.0,47.0,26.0,6.0,70.0,0.0,0.92,0.4,0.0,11.0,-6.0,ka
0.0,17.0,128.0,99.0,47.0,29.0,6.0,70.0,-0.0,0.93,0.41,-2.0,11.0,-6.0,ka
0.0,17.0,128.0,98.0,51.0,28.0,11.0,70.0,-0.01,0.92,0.43,-2.0,12.0,-6.0,ka
0.0,17.0,127.0,98.0,51.0,28.0,3.0,63.0,-0.02,0.92,0.44,-2.0,11.0,-5.0,ka
0.0,16.0,127.0,98.0,47.0,28.0,5.0,63.0,-0.03,0.91,0.44,-2.0,10.0,-5.0,ka
0.0,16.0,127.0,99.0,47.0,30.0,8.0,63.0,-0.03,0.91,0.44,2.0,5.0,-6.0,ka
0.0,16.0,127.0,98.0,49.0,30.0,11.0,63.0,-0.03,0.92,0.43,6.0,2.0,-6.0,ka
0.0,17.0,127.0,98.0,49.0,29.0,13.0,65.0,-0.03,0.92,0.42,9.0,0.0,-6.0,ka
0.0,22.0,128.0,98.0,42.0,29.0,13.0,67.0,-0.04,0.93,0.4,12.0,-4.0,-5.0,ka
0.0,22.0,127.0,98.0,42.0,30.0,13.0,65.0,-0.04,0.93,0.39,14.0,-7.0,-5.0,ka
0.0,22.0,127.0,98.0,42.0,29.0,10.0,67.0,-0.05,0.94,0.37,16.0,-10.0,-4.0,ka
0.0,20.0,127.0,98.0,42.0,26.0,8.0,65.0,-0.05,0.95,0.34,17.0,-11.0,-3.0,ka
0.0,20.0,127.0,98.0,42.0,28.0,6.0,65.0,-0.04,0.94,0.32,17.0,-12.0,-3.0,ka
0.0,20.0,127.0,98.0,42.0,28.0,17.0,72.0,-0.04,0.95,0.29,17.0,-11.0,-3.0,ka
0.0,20.0,127.0,97.0,42.0,26.0,18.0,72.0,-0.04,0.95,0.27,15.0,-11.0,-2.0,ka
0.0,20.0,128.0,97.0,44.0,22.0,17.0,72.0,-0.03,0.95,0.26,11.0,-8.0,-1.0,ka
0.0,20.0,127.0,97.0,44.0,22.0,17.0,72.0,-0.04,0.95,0.26,8.0,-4.0,-1.0,ka
0.0,20.0,127.0,97.0,40.0,22.0,17.0,69.0,-0.04,0.95,0.26,6.0,-2.0,-1.0,ka
0.0,16.0,127.0,97.0,40.0,22.0,17.0,67.0,-0.04,0.95,0.25,4.0,0.0,-1.0,ka
0.0,16.0,127.0,97.0,40.0,24.0,17.0,63.0,-0.05,0.95,0.25,2.0,0.0,-1.0,ka
0.0,16.0,128.0,97.0,40.0,25.0,22.0,63.0,-0.04,0.95,0.25,0.0,1.0,0.0,ka
0.0,16.0,127.0,97.0,38.0,25.0,15.0,63.0,-0.04,0.95,0.25,-5.0,3.0,0.0,ka
0.0,14.0,127.0,96.0,38.0,25.0,15.0,65.0,-0.04,0.95,0.27,-7.0,5.0,0.0,ka
0.0,14.0,127.0,96.0,38.0,25.0,15.0,63.0,-0.04,0.95,0.28,-10.0,7.0,-1.0,ka
0.0,14.0,127.0,96.0,37.0,25.0,13.0,63.0,-0.04,0.95,0.28,-12.0,8.0,0.0,ka
0.0,14.0,127.0,97.0,37.0,25.0,15.0,63.0,-0.04,0.95,0.29,-13.0,8.0,0.0,ka
0.0,14.0,128.0,97.0,35.0,26.0,13.0,65.0,-0.04,0.95,0.29,-13.0,8.0,0.0,ka
0.0,14.0,128.0,97.0,38.0,26.0,13.0,67.0,-0.04,0.95,0.29,-14.0,8.0,0.0,ka
0.0,14.0,128.0,96.0,38.0,25.0,13.0,69.0,-0.04,0.95,0.3,-14.0,8.0,1.0,ka
0.0,8.0,128.0,96.0,38.0,25.0,15.0,74.0,-0.04,0.94,0.31,-15.0,7.0,1.0,ka
0.0,10.0,127.0,96.0,38.0,24.0,13.0,74.0,-0.04,0.94,0.31,-14.0,7.0,1.0,ka
0.0,10.0,127.0,96.0,40.0,24.0,20.0,72.0,-0.04,0.93,0.32,-12.0,6.0,1.0,ka
0.0,10.0,128.0,96.0,38.0,24.0,20.0,70.0,-0.04,0.93,0.32,-10.0,5.0,1.0,ka
0.0,11.0,128.0,96.0,42.0,26.0,20.0,72.0,-0.04,0.93,0.32,-7.0,4.0,1.0,ka
0.0,11.0,128.0,97.0,45.0,26.0,22.0,72.0,-0.04,0.93,0.33,-5.0,2.0,1.0,ka
0.0,11.0,128.0,96.0,45.0,26.0,20.0,70.0,-0.04,0.93,0.33,-5.0,2.0,0.0,ka
0.0,10.0,128.0,96.0,44.0,25.0,20.0,69.0,-0.04,0.93,0.34,-4.0,3.0,0.0,ka
0.0,10.0,127.0,96.0,44.0,25.0,20.0,70.0,-0.03,0.93,0.35,-3.0,3.0,0.0,ka
0.0,11.0,127.0,96.0,42.0,25.0,27.0,70.0,-0.03,0.93,0.35,-1.0,3.0,0.0,ka
0.0,17.0,127.0,96.0,45.0,25.0,27.0,70.0,-0.04,0.93,0.36,0.0,2.0,0.0,ka
0.0,16.0,127.0,97.0,44.0,25.0,29.0,70.0,-0.04,0.93,0.36,2.0,2.0,0.0,ka
0.0,17.0,127.0,97.0,44.0,25.0,27.0,72.0,-0.04,0.93,0.35,4.0,1.0,0.0,ka
0.0,19.0,127.0,98.0,45.0,24.0,27.0,72.0,-0.04,0.93,0.34,5.0,0.0,0.0,ka
0.0,14.0,126.0,97.0,42.0,22.0,32.0,72.0,-0.03,0.93,0.34,6.0,0.0,1.0,ka
0.0,14.0,126.0,96.0,42.0,24.0,30.0,79.0,-0.03,0.94,0.33,6.0,0.0,1.0,ka
0.0,14.0,127.0,97.0,42.0,25.0,30.0,79.0,-0.03,0.94,0.33,6.0,0.0,1.0,ka
0.0,14.0,127.0,97.0,44.0,25.0,30.0,79.0,-0.03,0.94,0.32,6.0,-2.0,1.0,ka
0.0,14.0,127.0,97.0,45.0,26.0,30.0,79.0,-0.03,0.94,0.32,6.0,-1.0,1.0,ka
0.0,13.0,128.0,97.0,49.0,28.0,30.0,77.0,-0.03,0.94,0.31,5.0,-1.0,0.0,ka
0.0,13.0,126.0,97.0,45.0,29.0,32.0,77.0,-0.02,0.94,0.31,5.0,-2.0,0.0,ka
0.0,13.0,126.0,96.0,49.0,29.0,30.0,77.0,-0.02,0.95,0.3,5.0,-1.0,0.0,ka
0.0,11.0,125.0,96.0,49.0,29.0,30.0,75.0,-0.02,0.95,0.3,4.0,0.0,0.0,ka
0.0,11.0,125.0,95.0,49.0,29.0,30.0,75.0,-0.02,0.95,0.3,3.0,0.0,0.0,ka
0.0,16.0,126.0,96.0,47.0,29.0,27.0,75.0,-0.02,0.95,0.29,3.0,0.0,0.0,ka
0.0,14.0,126.0,96.0,49.0,28.0,27.0,69.0,-0.03,0.95,0.29,3.0,0.0,0.0,ka
0.0,14.0,126.0,96.0,45.0,28.0,27.0,69.0,-0.03,0.95,0.29,3.0,0.0,0.0,ka
0.0,14.0,126.0,96.0,44.0,25.0,29.0,70.0,-0.03,0.95,0.29,3.0,1.0,0.0,ka
0.0,14.0,125.0,96.0,42.0,25.0,27.0,69.0,-0.03,0.95,0.28,2.0,1.0,0.0,ka
0.0,14.0,125.0,96.0,40.0,22.0,20.0,70.0,-0.03,0.95,0.28,2.0,2.0,-1.0,ka
0.0,14.0,126.0,96.0,40.0,22.0,18.0,69.0,-0.03,0.95,0.28,1.0,2.0,-1.0,ka
0.0,14.0,124.0,96.0,42.0,22.0,18.0,67.0,-0.03,0.95,0.28,1.0,2.0,-1.0,ka
0.0,14.0,125.0,96.0,42.0,22.0,20.0,69.0,-0.03,0.95,0.28,1.0,2.0,0.0,ka
0.0,16.0,125.0,96.0,40.0,22.0,18.0,67.0,-0.03,0.95,0.28,0.0,2.0,0.0,ka
0.0,16.0,124.0,96.0,42.0,24.0,15.0,69.0,-0.03,0.95,0.28,0.0,2.0,0.0,ka
0.0,16.0,124.0,96.0,40.0,24.0,17.0,69.0,-0.03,0.95,0.27,0.0,2.0,0.0,ka
0.0,16.0,124.0,96.0,42.0,25.0,17.0,70.0,-0.02,0.95,0.27,0.0,2.0,0.0,ka
0.0,17.0,123.0,96.0,42.0,26.0,18.0,69.0,-0.02,0.95,0.27,0.0,2.0,0.0,ka
0.0,16.0,124.0,96.0,42.0,26.0,25.0,69.0,-0.02,0.95,0.27,-1.0,2.0,0.0,ka
0.0,16.0,124.0,96.0,40.0,28.0,25.0,70.0,-0.02,0.95,0.27,-2.0,2.0,0.0,ka
0.0,17.0,124.0,96.0,42.0,29.0,25.0,72.0,-0.02,0.95,0.27,-2.0,3.0,0.0,ka
0.0,16.0,127.0,97.0,40.0,29.0,25.0,72.0,-0.02,0.95,0.27,-2.0,2.0,0.0,ka
0.0,14.0,127.0,97.0,38.0,30.0,23.0,70.0,-0.02,0.95,0.27,-2.0,3.0,0.0,ka
0.0,13.0,127.0,97.0,40.0,30.0,27.0,70.0,-0.02,0.95,0.27,-3.0,3.0,0.0,ka
0.0,13.0,128.0,98.0,40.0,30.0,27.0,70.0,-0.02,0.95,0.28,-2.0,3.0,0.0,ka
0.0,13.0,128.0,98.0,40.0,29.0,27.0,70.0,-0.02,0.95,0.27,-2.0,3.0,0.0,ka
0.0,13.0,128.0,97.0,42.0,28.0,27.0,70.0,-0.02,0.95,0.27,-2.0,3.0,0.0,ka
0.0,10.0,128.0,95.0,45.0,28.0,23.0,74.0,-0.02,0.95,0.27,-3.0,3.0,0.0,ka
0.0,11.0,127.0,95.0,45.0,26.0,25.0,75.0,-0.02,0.95,0.28,-2.0,2.0,0.0,ka
0.0,13.0,127.0,95.0,44.0,26.0,25.0,72.0,-0.02,0.95,0.28,-2.0,2.0,0.0,ka
0.0,11.0,126.0,95.0,45.0,24.0,25.0,72.0,-0.02,0.95,0.28,-1.0,2.0,0.0,ka
0.0,13.0,126.0,95.0,38.0,24.0,27.0,69.0,-0.02,0.96,0.28,-1.0,2.0,0.0,ka
0.0,16.0,126.0,95.0,38.0,22.0,29.0,70.0,-0.02,0.95,0.28,-2.0,1.0,0.0,ka
0.0,16.0,125.0,95.0,38.0,22.0,30.0,72.0,-0.02,0.95,0.28,0.0,2.0,0.0,ka
0.0,13.0,125.0,94.0,37.0,20.0,30.0,70.0,-0.02,0.95,0.27,-2.0,2.0,-1.0,ka
0.0,13.0,125.0,94.0,33.0,20.0,30.0,70.0,-0.02,0.95,0.28,-1.0,2.0,0.0,ka
0.0,13.0,125.0,94.0,31.0,20.0,30.0,70.0,-0.02,0.96,0.28,0.0,2.0,0.0,ka
0.0,14.0,125.0,96.0,26.0,20.0,22.0,69.0,-0.02,0.96,0.27,0.0,2.0,0.0,ka
0.0,14.0,126.0,96.0,40.0,21.0,15.0,69.0,-0.02,0.96,0.27,-1.0,2.0,0.0,ka
0.0,11.0,126.0,95.0,42.0,21.0,15.0,70.0,-0.02,0.96,0.27,-2.0,3.0,0.0,ka
0.0,13.0,127.0,96.0,42.0,21.0,17.0,70.0,-0.02,0.95,0.27,-2.0,2.0,0.0,ka
0.0,13.0,127.0,96.0,47.0,22.0,15.0,75.0,-0.02,0.95,0.27,-2.0,3.0,0.0,ka
0.0,10.0,127.0,96.0,47.0,24.0,15.0,70.0,-0.02,0.95,0.27,-2.0,3.0,0.0,ka
0.0,10.0,127.0,96.0,49.0,25.0,13.0,69.0,-0.02,0.95,0.27,-2.0,2.0,0.0,ka
0.0,13.0,127.0,96.0,51.0,26.0,11.0,69.0,-0.02,0.95,0.27,-3.0,3.0,0.0,ka
0.0,13.0,128.0,96.0,53.0,28.0,11.0,67.0,-0.02,0.95,0.27,-2.0,3.0,0.0,ka
0.0,14.0,128.0,96.0,51.0,26.0,15.0,65.0,-0.02,0.95,0.27,-2.0,3.0,0.0,ka
0.0,14.0,127.0,96.0,54.0,30.0,22.0,67.0,-0.02,0.94,0.27,-3.0,3.0,0.0,ka
0.0,16.0,127.0,96.0,40.0,29.0,22.0,63.0,-0.02,0.95,0.28,-3.0,3.0,0.0,ka
0.0,16.0,127.0,96.0,40.0,29.0,22.0,60.0,-0.02,0.94,0.27,-3.0,3.0,0.0,ka
0.0,16.0,127.0,96.0,37.0,30.0,22.0,60.0,-0.02,0.94,0.28,-2.0,3.0,0.0,ka
0.0,17.0,127.0,96.0,42.0,29.0,22.0,60.0,-0.02,0.94,0.27,-2.0,3.0,0.0,ka
0.0,17.0,127.0,96.0,42.0,29.0,22.0,65.0,-0.02,0.95,0.27,-1.0,3.0,0.0,ka
0.0,17.0,127.0,96.0,42.0,28.0,25.0,72.0,-0.02,0.95,0.27,-2.0,3.0,0.0,ka
0.0,16.0,127.0,96.0,42.0,28.0,25.0,72.0,-0.02,0.94,0.27,-1.0,3.0,0.0,ka
0.0,16.0,126.0,96.0,42.0,26.0,25.0,74.0,-0.01,0.95,0.27,-2.0,3.0,0.0,ka
0.0,14.0,128.0,96.0,45.0,26.0,23.0,75.0,-0.01,0.95,0.28,-1.0,3.0,0.0,ka
0.0,13.0,129.0,96.0,45.0,24.0,25.0,77.0,-0.01,0.95,0.28,-1.0,3.0,0.0,ka
0.0,13.0,129.0,97.0,44.0,24.0,23.0,75.0,-0.01,0.95,0.28,0.0,2.0,0.0,ka
0.0,11.0,128.0,97.0,44.0,25.0,23.0,79.0,-0.01,0.95,0.28,0.0,2.0,0.0,ka
0.0,13.0,128.0,96.0,54.0,24.0,25.0,80.0,-0.01,0.95,0.28,-1.0,2.0,0.0,ka
0.0,11.0,129.0,96.0,51.0,24.0,25.0,80.0,-0.01,0.95,0.28,0.0,2.0,0.0,ka
0.0,11.0,128.0,96.0,49.0,24.0,23.0,77.0,-0.01,0.95,0.27,-1.0,2.0,0.0,ka
0.0,11.0,128.0,97.0,49.0,20.0,22.0,70.0,-0.01,0.95,0.28,0.0,2.0,0.0,ka
0.0,11.0,128.0,97.0,45.0,20.0,22.0,72.0,-0.01,0.95,0.27,0.0,1.0,0.0,ka
0.0,13.0,128.0,97.0,45.0,20.0,23.0,72.0,-0.01,0.95,0.27,0.0,2.0,0.0,ka
0.0,13.0,126.0,97.0,44.0,20.0,22.0,70.0,-0.01,0.95,0.27,0.0,2.0,0.0,ka
0.0,14.0,126.0,97.0,45.0,21.0,23.0,67.0,-0.01,0.95,0.27,0.0,2.0,0.0,ka
0.0,17.0,123.0,96.0,49.0,21.0,23.0,67.0,-0.01,0.95,0.27,0.0,2.0,0.0,ka
0.0,17.0,124.0,96.0,47.0,21.0,23.0,67.0,-0.01,0.95,0.27,0.0,2.0,0.0,ka
0.0,16.0,123.0,97.0,38.0,22.0,23.0,62.0,-0.01,0.95,0.27,0.0,2.0,0.0,ka
0.0,16.0,123.0,97.0,38.0,22.0,22.0,60.0,-0.01,0.95,0.27,-1.0,2.0,0.0,ka
0.0,16.0,124.0,97.0,38.0,21.0,25.0,63.0,-0.01,0.95,0.27,0.0,2.0,0.0,ka
0.0,16.0,124.0,97.0,38.0,26.0,11.0,65.0,-0.01,0.95,0.26,-2.0,2.0,0.0,ka
0.0,17.0,124.0,96.0,42.0,25.0,10.0,65.0,-0.01,0.95,0.27,-1.0,2.0,0.0,ka
0.0,14.0,124.0,96.0,45.0,25.0,11.0,63.0,-0.01,0.95,0.27,-2.0,2.0,0.0,ka
0.0,17.0,123.0,96.0,44.0,25.0,11.0,63.0,-0.01,0.95,0.27,-2.0,2.0,0.0,ka
0.0,17.0,120.0,96.0,42.0,25.0,10.0,65.0,-0.01,0.95,0.27,-1.0,2.0,0.0,ka
0.0,16.0,122.0,96.0,40.0,26.0,10.0,65.0,-0.01,0.95,0.27,-2.0,2.0,0.0,ka
0.0,13.0,122.0,96.0,40.0,25.0,10.0,63.0,-0.01,0.95,0.27,-2.0,2.0,0.0,ka
0.0,14.0,122.0,96.0,40.0,25.0,10.0,69.0,-0.01,0.95,0.27,-2.0,2.0,0.0,ka
0.0,16.0,122.0,96.0,40.0,26.0,6.0,69.0,-0.01,0.95,0.27,-1.0,2.0,0.0,ka
0.0,14.0,121.0,96.0,38.0,26.0,3.0,67.0,-0.01,0.95,0.27,-1.0,2.0,0.0,ka
0.0,16.0,121.0,96.0,38.0,26.0,20.0,65.0,-0.01,0.95,0.26,-1.0,2.0,0.0,ka
0.0,14.0,121.0,96.0,38.0,28.0,20.0,65.0,-0.01,0.95,0.26,-2.0,2.0,0.0,ka
0.0,13.0,121.0,96.0,35.0,29.0,13.0,70.0,-0.01,0.96,0.26,-2.0,3.0,0.0,ka
0.0,11.0,122.0,96.0,37.0,29.0,15.0,74.0,-0.01,0.96,0.26,-2.0,2.0,0.0,ka
0.0,11.0,126.0,96.0,37.0,28.0,17.0,74.0,-0.01,0.96,0.26,-2.0,2.0,0.0,ka
0.0,10.0,127.0,96.0,37.0,28.0,17.0,74.0,-0.01,0.96,0.26,-1.0,3.0,0.0,ka
0.0,14.0,128.0,96.0,37.0,29.0,15.0,75.0,-0.01,0.96,0.26,-2.0,2.0,0.0,ka
0.0,13.0,128.0,97.0,37.0,28.0,15.0,77.0,-0.01,0.96,0.26,-2.0,3.0,0.0,ka
0.0,13.0,128.0,97.0,38.0,28.0,18.0,79.0,-0.01,0.96,0.26,-2.0,2.0,0.0,ka
0.0,14.0,127.0,96.0,40.0,28.0,18.0,79.0,-0.01,0.95,0.26,-2.0,2.0,0.0,ka
0.0,17.0,127.0,96.0,40.0,24.0,17.0,80.0,-0.01,0.95,0.26,-2.0,2.0,0.0,ka
0.0,17.0,127.0,97.0,40.0,24.0,17.0,79.0,-0.01,0.95,0.26,-1.0,2.0,0.0,ka
0.0,20.0,127.0,96.0,40.0,24.0,20.0,74.0,-0.01,0.95,0.27,0.0,2.0,0.0,ka
0.0,20.0,128.0,96.0,37.0,22.0,29.0,72.0,-0.01,0.95,0.27,0.0,2.0,0.0,ka
0.0,20.0,127.0,96.0,37.0,22.0,29.0,72.0,-0.01,0.95,0.27,0.0,2.0,0.0,ka
0.0,20.0,126.0,95.0,38.0,22.0,29.0,74.0,-0.01,0.95,0.27,-1.0,2.0,0.0,ka
0.0,20.0,126.0,95.0,38.0,21.0,30.0,74.0,-0.01,0.95,0.27,0.0,2.0,0.0,ka
0.0,19.0,126.0,95.0,37.0,21.0,30.0,72.0,-0.01,0.95,0.27,-1.0,2.0,0.0,ka
0.0,20.0,125.0,95.0,35.0,21.0,30.0,72.0,-0.0,0.95,0.26,-1.0,2.0,0.0,ka
0.0,19.0,125.0,95.0,35.0,22.0,30.0,72.0,-0.0,0.95,0.27,0.0,2.0,0.0,ka
0.0,14.0,125.0,95.0,30.0,26.0,32.0,72.0,-0.0,0.95,0.27,-1.0,2.0,0.0,ka
0.0,14.0,124.0,95.0,30.0,25.0,30.0,74.0,-0.0,0.95,0.27,0.0,2.0,0.0,ka
0.0,13.0,124.0,94.0,30.0,24.0,32.0,74.0,-0.0,0.95,0.26,-2.0,2.0,0.0,ka
0.0,13.0,123.0,94.0,33.0,24.0,22.0,74.0,-0.0,0.95,0.26,-1.0,2.0,0.0,ka
0.0,13.0,123.0,94.0,33.0,24.0,20.0,72.0,-0.0,0.95,0.26,-2.0,3.0,0.0,ka
0.0,13.0,123.0,95.0,33.0,24.0,20.0,70.0,-0.0,0.95,0.26,-2.0,3.0,-1.0,ka
0.0,16.0,123.0,95.0,33.0,24.0,20.0,72.0,-0.0,0.96,0.26,-2.0,3.0,-1.0,ka
0.0,16.0,123.0,94.0,37.0,24.0,22.0,70.0,-0.0,0.96,0.26,-2.0,2.0,-1.0,ka
0.0,16.0,124.0,95.0,38.0,24.0,22.0,70.0,-0.0,0.96,0.26,-2.0,2.0,-1.0,ka
0.0,16.0,124.0,95.0,37.0,24.0,22.0,69.0,-0.0,0.96,0.26,-2.0,2.0,-1.0,ka
0.0,17.0,125.0,95.0,42.0,22.0,22.0,69.0,-0.0,0.96,0.26,-2.0,2.0,0.0,ka
0.0,16.0,125.0,94.0,42.0,22.0,22.0,69.0,-0.01,0.96,0.26,-2.0,2.0,0.0,ka
0.0,16.0,125.0,95.0,42.0,22.0,20.0,69.0,-0.01,0.96,0.26,-1.0,2.0,0.0,ka
0.0,16.0,124.0,95.0,42.0,22.0,18.0,63.0,-0.01,0.96,0.26,-1.0,2.0,0.0,ka
0.0,16.0,124.0,95.0,44.0,22.0,22.0,65.0,-0.01,0.96,0.26,-2.0,2.0,0.0,ka
0.0,16.0,126.0,95.0,40.0,22.0,22.0,67.0,-0.01,0.96,0.26,-1.0,2.0,0.0,ka
0.0,14.0,126.0,95.0,40.0,24.0,22.0,67.0,-0.01,0.96,0.26,-2.0,2.0,0.0,ka
0.0,13.0,126.0,95.0,37.0,22.0,20.0,67.0,-0.01,0.96,0.26,-1.0,2.0,0.0,ka
0.0,13.0,126.0,93.0,40.0,22.0,25.0,65.0,-0.01,0.95,0.26,-2.0,2.0,0.0,ka
0.0,13.0,126.0,93.0,40.0,24.0,15.0,67.0,-0.01,0.95,0.26,-1.0,2.0,0.0,ka
0.0,11.0,125.0,94.0,42.0,24.0,15.0,67.0,-0.01,0.96,0.26,-2.0,2.0,0.0,ka
0.0,13.0,126.0,92.0,40.0,24.0,15.0,67.0,-0.0,0.95,0.26,-2.0,2.0,0.0,ka
0.0,14.0,126.0,92.0,40.0,24.0,18.0,67.0,-0.0,0.96,0.26,-2.0,2.0,0.0,ka
0.0,14.0,128.0,92.0,38.0,24.0,18.0,70.0,-0.0,0.96,0.26,-2.0,2.0,0.0,ka
0.0,13.0,127.0,93.0,37.0,24.0,17.0,69.0,-0.0,0.96,0.26,-2.0,2.0,0.0,ka
0.0,14.0,125.0,92.0,40.0,24.0,17.0,67.0,-0.01,0.96,0.26,-2.0,2.0,0.0,ka
0.0,14.0,126.0,92.0,44.0,24.0,17.0,63.0,-0.01,0.96,0.26,-2.0,2.0,0.0,ka
0.0,14.0,126.0,92.0,45.0,24.0,17.0,69.0,-0.0,0.95,0.26,-2.0,2.0,0.0,ka
0.0,14.0,125.0,94.0,54.0,24.0,15.0,70.0,-0.0,0.96,0.26,-2.0,2.0,0.0,ka
0.0,16.0,126.0,94.0,54.0,24.0,25.0,69.0,-0.0,0.96,0.26,-2.0,2.0,0.0,ka
0.0,16.0,125.0,94.0,53.0,24.0,23.0,69.0,-0.01,0.95,0.26,-2.0,2.0,0.0,ka
0.0,14.0,122.0,95.0,53.0,24.0,25.0,69.0,-0.01,0.95,0.26,-2.0,2.0,0.0,ka
0.0,13.0,122.0,95.0,54.0,24.0,22.0,69.0,-0.01,0.95,0.26,-2.0,2.0,0.0,ka
0.0,13.0,122.0,95.0,68.0,24.0,22.0,67.0,-0.01,0.95,0.26,-1.0,2.0,0.0,ka
0.0,13.0,122.0,95.0,68.0,24.0,22.0,72.0,-0.01,0.95,0.26,0.0,2.0,0.0,ka
0.0,11.0,122.0,95.0,68.0,24.0,23.0,72.0,-0.0,0.95,0.25,-1.0,2.0,0.0,ka
0.0,11.0,122.0,95.0,63.0,24.0,23.0,75.0,-0.0,0.96,0.26,-1.0,2.0,0.0,ka
0.0,11.0,122.0,95.0,61.0,25.0,22.0,69.0,-0.01,0.96,0.26,-1.0,2.0,0.0,ka
0.0,10.0,122.0,95.0,49.0,24.0,20.0,67.0,-0.01,0.96,0.26,0.0,2.0,0.0,ka
0.0,10.0,122.0,95.0,51.0,24.0,20.0,69.0,-0.0,0.95,0.26,-1.0,2.0,0.0,ka
0.0,10.0,119.0,95.0,54.0,25.0,20.0,69.0,-0.01,0.96,0.26,0.0,2.0,0.0,ka
0.0,11.0,122.0,95.0,63.0,25.0,20.0,70.0,-0.0,0.96,0.26,-1.0,2.0,-1.0,ka
0.0,11.0,122.0,96.0,63.0,25.0,22.0,70.0,-0.0,0.96,0.26,-1.0,2.0,-1.0,ka
0.0,13.0,121.0,96.0,51.0,24.0,23.0,67.0,-0.01,0.96,0.26,-1.0,2.0,-1.0,ka
0.0,14.0,121.0,96.0,49.0,25.0,25.0,63.0,-0.01,0.96,0.26,-2.0,2.0,-1.0,ka
0.0,14.0,121.0,96.0,51.0,24.0,25.0,63.0,-0.01,0.96,0.26,-2.0,2.0,-1.0,ka
0.0,14.0,121.0,96.0,49.0,25.0,27.0,62.0,-0.01,0.96,0.26,-2.0,1.0,-1.0,ka
0.0,16.0,122.0,96.0,51.0,25.0,29.0,62.0,-0.01,0.96,0.26,-2.0,2.0,-2.0,ka
0.0,16.0,123.0,96.0,49.0,26.0,29.0,62.0,-0.01,0.96,0.26,-2.0,2.0,-2.0,ka
0.0,16.0,123.0,96.0,47.0,25.0,30.0,58.0,-0.01,0.96,0.27,-2.0,2.0,-2.0,ka
0.0,19.0,126.0,95.0,45.0,22.0,30.0,58.0,-0.01,0.96,0.27,-2.0,2.0,-2.0,ka
0.0,19.0,127.0,95.0,35.0,22.0,32.0,58.0,-0.01,0.96,0.27,-2.0,3.0,-2.0,ka
0.0,19.0,126.0,95.0,35.0,22.0,32.0,60.0,-0.01,0.96,0.27,-2.0,3.0,-2.0,ka
0.0,19.0,127.0,95.0,31.0,22.0,30.0,63.0,-0.01,0.96,0.26,-2.0,3.0,-1.0,ka
0.0,17.0,127.0,95.0,33.0,22.0,32.0,63.0,-0.01,0.95,0.26,-2.0,3.0,-1.0,ka
0.0,17.0,125.0,95.0,31.0,24.0,32.0,65.0,-0.01,0.95,0.26,-1.0,3.0,-1.0,ka
0.0,17.0,125.0,95.0,33.0,22.0,32.0,65.0,-0.01,0.96,0.27,-1.0,3.0,-1.0,ka
0.0,19.0,123.0,95.0,33.0,22.0,32.0,63.0,-0.01,0.95,0.26,-1.0,3.0,0.0,ka
0.0,19.0,123.0,97.0,33.0,21.0,34.0,69.0,-0.01,0.96,0.26,-1.0,3.0,0.0,ka
0.0,19.0,123.0,98.0,31.0,22.0,34.0,72.0,-0.01,0.95,0.26,-1.0,2.0,0.0,ka
0.0,17.0,123.0,99.0,30.0,22.0,35.0,79.0,-0.01,0.96,0.26,-1.0,2.0,0.0,ka
0.0,17.0,122.0,99.0,31.0,22.0,35.0,77.0,-0.01,0.96,0.26,-2.0,2.0,0.0,ka
0.0,17.0,123.0,97.0,33.0,22.0,35.0,77.0,-0.01,0.95,0.26,-2.0,2.0,0.0,ka
0.0,17.0,123.0,96.0,35.0,24.0,34.0,79.0,-0.01,0.96,0.27,-2.0,2.0,0.0,ka
0.0,17.0,123.0,95.0,35.0,24.0,32.0,77.0,-0.01,0.96,0.26,-1.0,2.0,0.0,ka
0.0,16.0,124.0,96.0,33.0,24.0,35.0,75.0,-0.01,0.96,0.26,-1.0,2.0,0.0,ka
0.0,16.0,124.0,95.0,31.0,24.0,35.0,75.0,-0.01,0.96,0.26,-1.0,2.0,0.0,ka
0.0,14.0,124.0,95.0,33.0,24.0,35.0,77.0,-0.01,0.96,0.26,-1.0,2.0,0.0,ka
0.0,14.0,123.0,93.0,35.0,24.0,35.0,70.0,-0.01,0.95,0.26,-2.0,2.0,0.0,ka
0.0,14.0,122.0,93.0,33.0,24.0,35.0,70.0,-0.01,0.96,0.26,-1.0,2.0,0.0,ka
0.0,13.0,122.0,93.0,35.0,24.0,35.0,67.0,-0.01,0.95,0.26,-2.0,2.0,-1.0,ka
0.0,13.0,122.0,93.0,35.0,24.0,35.0,69.0,-0.01,0.96,0.26,-2.0,2.0,-1.0,ka
0.0,11.0,121.0,94.0,33.0,24.0,35.0,69.0,-0.01,0.96,0.26,-3.0,2.0,-1.0,ka
0.0,13.0,120.0,95.0,28.0,25.0,37.0,69.0,-0.01,0.95,0.27,-2.0,3.0,-1.0,ka
0.0,13.0,120.0,95.0,30.0,24.0,37.0,69.0,-0.01,0.96,0.27,-2.0,2.0,-1.0,ka
0.0,13.0,120.0,95.0,30.0,25.0,34.0,69.0,-0.01,0.95,0.27,-2.0,3.0,-1.0,ka
0.0,13.0,120.0,96.0,28.0,25.0,32.0,69.0,-0.01,0.96,0.27,-2.0,2.0,-1.0,ka
0.0,14.0,120.0,97.0,24.0,25.0,30.0,70.0,-0.01,0.95,0.27,-2.0,3.0,-1.0,ka
0.0,13.0,120.0,97.0,26.0,25.0,32.0,72.0,-0.01,0.96,0.27,-2.0,3.0,-1.0,ka
0.0,13.0,121.0,97.0,30.0,25.0,32.0,70.0,-0.02,0.96,0.27,-2.0,3.0,-1.0,ka
0.0,13.0,121.0,97.0,28.0,25.0,30.0,69.0,-0.02,0.95,0.27,-2.0,3.0,-1.0,ka
0.0,13.0,120.0,97.0,28.0,25.0,29.0,69.0,-0.02,0.95,0.27,-2.0,3.0,0.0,ka
0.0,14.0,121.0,97.0,28.0,24.0,27.0,67.0,-0.02,0.95,0.27,-1.0,2.0,0.0,ka
0.0,13.0,121.0,97.0,33.0,24.0,27.0,67.0,-0.02,0.95,0.27,-2.0,3.0,0.0,ka
0.0,13.0,121.0,97.0,33.0,24.0,27.0,65.0,-0.02,0.95,0.26,-2.0,3.0,0.0,ka
0.0,11.0,120.0,97.0,33.0,24.0,29.0,67.0,-0.02,0.95,0.27,-2.0,3.0,0.0,ka
0.0,11.0,120.0,95.0,35.0,24.0,29.0,74.0,-0.02,0.95,0.26,-1.0,3.0,-1.0,ka
0.0,11.0,120.0,95.0,38.0,24.0,29.0,74.0,-0.02,0.95,0.27,-1.0,2.0,-1.0,ka
0.0,11.0,120.0,94.0,35.0,24.0,27.0,72.0,-0.02,0.95,0.27,-2.0,2.0,-2.0,ka
0.0,13.0,120.0,94.0,37.0,22.0,25.0,72.0,-0.02,0.95,0.26,-1.0,2.0,-2.0,ka
0.0,11.0,119.0,94.0,38.0,22.0,27.0,74.0,-0.03,0.95,0.26,-2.0,2.0,-2.0,ka
0.0,11.0,118.0,93.0,40.0,22.0,29.0,72.0,-0.02,0.95,0.26,-2.0,2.0,-2.0,ka
0.0,11.0,117.0,93.0,38.0,22.0,32.0,74.0,-0.03,0.95,0.27,-1.0,2.0,-2.0,ka
0.0,10.0,115.0,93.0,37.0,22.0,32.0,74.0,-0.03,0.95,0.26,-1.0,2.0,-2.0,ka
0.0,10.0,114.0,93.0,38.0,22.0,35.0,75.0,-0.03,0.96,0.26,-2.0,2.0,-2.0,ka
0.0,11.0,114.0,93.0,40.0,22.0,35.0,75.0,-0.03,0.95,0.26,-2.0,2.0,-2.0,ka
0.0,11.0,114.0,94.0,38.0,22.0,37.0,69.0,-0.03,0.96,0.26,-2.0,2.0,-2.0,ka
0.0,11.0,115.0,94.0,38.0,24.0,40.0,69.0,-0.03,0.95,0.26,-3.0,2.0,-1.0,ka
0.0,11.0,114.0,94.0,38.0,24.0,39.0,69.0,-0.03,0.96,0.26,-3.0,2.0,0.0,ka
0.0,11.0,114.0,94.0,37.0,24.0,40.0,69.0,-0.03,0.96,0.26,-2.0,2.0,0.0,ka
0.0,11.0,115.0,94.0,35.0,24.0,39.0,67.0,-0.02,0.96,0.27,-2.0,2.0,0.0,ka
0.0,11.0,115.0,95.0,31.0,22.0,37.0,69.0,-0.03,0.95,0.26,-2.0,2.0,0.0,ka
0.0,11.0,116.0,96.0,30.0,22.0,35.0,67.0,-0.03,0.96,0.27,-1.0,2.0,-1.0,ka
0.0,10.0,119.0,96.0,30.0,22.0,35.0,69.0,-0.03,0.96,0.27,0.0,1.0,0.0,ka
0.0,10.0,119.0,95.0,31.0,22.0,30.0,67.0,-0.03,0.96,0.27,0.0,1.0,-1.0,ka
0.0,10.0,120.0,96.0,28.0,22.0,29.0,65.0,-0.03,0.95,0.27,0.0,0.0,-1.0,ka
0.0,10.0,120.0,96.0,30.0,21.0,27.0,65.0,-0.03,0.96,0.27,0.0,0.0,-1.0,ka
0.0,11.0,121.0,96.0,28.0,21.0,25.0,67.0,-0.03,0.96,0.27,0.0,0.0,-1.0,ka
0.0,11.0,121.0,95.0,30.0,21.0,25.0,65.0,-0.03,0.95,0.27,1.0,0.0,-2.0,ka
0.0,13.0,121.0,96.0,30.0,21.0,22.0,65.0,-0.03,0.96,0.26,0.0,1.0,-2.0,ka
0.0,11.0,121.0,96.0,30.0,22.0,22.0,65.0,-0.03,0.96,0.26,0.0,2.0,-2.0,ka
0.0,11.0,121.0,96.0,33.0,24.0,18.0,63.0,-0.03,0.96,0.26,0.0,4.0,-2.0,ka
0.0,13.0,120.0,96.0,35.0,25.0,18.0,63.0,-0.03,0.96,0.26,0.0,4.0,-1.0,ka
0.0,13.0,120.0,96.0,35.0,25.0,25.0,63.0,-0.03,0.96,0.26,-1.0,5.0,-1.0,ka
0.0,13.0,119.0,98.0,33.0,25.0,25.0,63.0,-0.03,0.96,0.26,-1.0,5.0,0.0,ka
0.0,14.0,118.0,97.0,37.0,25.0,25.0,65.0,-0.03,0.96,0.26,-1.0,5.0,0.0,ka
0.0,14.0,117.0,98.0,38.0,25.0,23.0,65.0,-0.03,0.95,0.26,-2.0,6.0,0.0,ka
0.0,13.0,117.0,97.0,38.0,25.0,23.0,67.0,-0.03,0.96,0.26,0.0,5.0,0.0,ka
0.0,14.0,118.0,97.0,33.0,25.0,22.0,62.0,-0.03,0.96,0.26,-1.0,4.0,0.0,ka
0.0,13.0,118.0,97.0,33.0,25.0,22.0,67.0,-0.03,0.95,0.26,0.0,4.0,0.0,ka
0.0,13.0,117.0,96.0,33.0,24.0,20.0,67.0,-0.03,0.95,0.26,-1.0,3.0,0.0,ka
0.0,13.0,117.0,96.0,31.0,25.0,23.0,70.0,-0.03,0.95,0.26,0.0,2.0,0.0,ka
0.0,14.0,117.0,96.0,31.0,25.0,23.0,70.0,-0.03,0.95,0.27,0.0,2.0,-1.0,ka
0.0,14.0,116.0,96.0,31.0,25.0,17.0,72.0,-0.03,0.95,0.27,0.0,1.0,-2.0,ka
0.0,14.0,116.0,96.0,33.0,25.0,17.0,72.0,-0.03,0.96,0.27,0.0,1.0,-2.0,ka
0.0,16.0,118.0,95.0,33.0,26.0,17.0,70.0,-0.04,0.96,0.26,0.0,1.0,-2.0,ka
0.0,16.0,119.0,95.0,30.0,26.0,18.0,75.0,-0.04,0.96,0.26,0.0,1.0,-2.0,ka
0.0,17.0,120.0,95.0,30.0,25.0,18.0,72.0,-0.04,0.96,0.25,-1.0,1.0,-2.0,ka
0.0,16.0,119.0,96.0,33.0,25.0,18.0,77.0,-0.04,0.96,0.26,0.0,2.0,-2.0,ka
0.0,17.0,119.0,95.0,33.0,22.0,20.0,75.0,-0.04,0.96,0.26,-1.0,2.0,-1.0,ka
0.0,17.0,119.0,96.0,33.0,24.0,22.0,75.0,-0.04,0.96,0.25,-2.0,2.0,-1.0,ka
0.0,19.0,119.0,95.0,30.0,22.0,22.0,70.0,-0.04,0.96,0.26,-2.0,1.0,0.0,ka
0.0,17.0,119.0,95.0,31.0,22.0,22.0,72.0,-0.04,0.96,0.26,-2.0,1.0,0.0,ka
0.0,17.0,119.0,95.0,31.0,22.0,20.0,70.0,-0.04,0.96,0.26,-2.0,1.0,0.0,ka
0.0,16.0,120.0,95.0,30.0,22.0,18.0,70.0,-0.04,0.96,0.26,-2.0,1.0,0.0,ka
0.0,16.0,119.0,95.0,28.0,21.0,18.0,74.0,-0.04,0.96,0.26,-3.0,1.0,0.0,ka
0.0,16.0,117.0,96.0,26.0,21.0,18.0,69.0,-0.04,0.96,0.26,-2.0,1.0,0.0,ka
0.0,14.0,117.0,96.0,26.0,20.0,20.0,69.0,-0.04,0.95,0.26,-2.0,1.0,0.0,ka
0.0,14.0,118.0,96.0,28.0,22.0,22.0,72.0,-0.04,0.96,0.27,0.0,1.0,0.0,ka
0.0,16.0,118.0,96.0,28.0,24.0,23.0,70.0,-0.04,0.96,0.26,-1.0,0.0,0.0,ka
0.0,17.0,118.0,96.0,28.0,25.0,23.0,72.0,-0.03,0.96,0.26,0.0,1.0,0.0,ka
0.0,16.0,117.0,96.0,30.0,22.0,22.0,70.0,-0.03,0.96,0.26,-1.0,1.0,0.0,ka
0.0,17.0,118.0,96.0,26.0,22.0,27.0,70.0,-0.03,0.96,0.25,0.0,1.0,0.0,ka
0.0,19.0,118.0,96.0,24.0,22.0,29.0,70.0,-0.03,0.96,0.25,0.0,1.0,0.0,ka
0.0,19.0,118.0,95.0,24.0,22.0,23.0,70.0,-0.03,0.96,0.25,0.0,1.0,0.0,ka
0.0,20.0,118.0,95.0,24.0,22.0,23.0,69.0,-0.03,0.96,0.25,0.0,1.0,0.0,ka
0.0,19.0,118.0,95.0,26.0,24.0,23.0,69.0,-0.03,0.96,0.25,0.0,1.0,0.0,ka
0.0,19.0,118.0,95.0,26.0,25.0,22.0,67.0,-0.03,0.96,0.25,0.0,1.0,0.0,ka
0.0,17.0,116.0,95.0,26.0,24.0,20.0,65.0,-0.03,0.96,0.25,-1.0,2.0,-1.0,ka
0.0,17.0,116.0,94.0,28.0,24.0,17.0,67.0,-0.03,0.96,0.25,0.0,2.0,0.0,ka
0.0,16.0,117.0,94.0,26.0,22.0,17.0,67.0,-0.04,0.96,0.24,-2.0,2.0,-1.0,ka
0.0,17.0,117.0,95.0,28.0,25.0,17.0,69.0,-0.04,0.96,0.25,0.0,2.0,0.0,ka
0.0,16.0,117.0,94.0,31.0,25.0,11.0,67.0,-0.04,0.96,0.25,-2.0,2.0,0.0,ka
0.0,14.0,119.0,95.0,33.0,25.0,11.0,67.0,-0.04,0.95,0.25,-2.0,2.0,0.0,ka
0.0,11.0,119.0,95.0,31.0,25.0,18.0,69.0,-0.04,0.96,0.25,-2.0,2.0,0.0,ka
0.0,11.0,119.0,95.0,31.0,26.0,18.0,69.0,-0.04,0.95,0.25,-2.0,2.0,0.0,ka
0.0,11.0,119.0,95.0,31.0,25.0,18.0,69.0,-0.04,0.95,0.25,-1.0,2.0,0.0,ka
0.0,11.0,119.0,94.0,33.0,24.0,15.0,70.0,-0.04,0.96,0.25,-2.0,2.0,0.0,ka
0.0,11.0,119.0,94.0,33.0,21.0,15.0,70.0,-0.04,0.96,0.25,-1.0,2.0,0.0,ka
0.0,11.0,119.0,95.0,30.0,22.0,17.0,65.0,-0.03,0.96,0.25,-2.0,2.0,0.0,ka
0.0,11.0,119.0,94.0,30.0,22.0,22.0,65.0,-0.03,0.96,0.25,-1.0,2.0,0.0,ka
0.0,11.0,118.0,94.0,26.0,21.0,25.0,63.0,-0.03,0.96,0.25,0.0,2.0,0.0,ka
0.0,10.0,119.0,94.0,30.0,21.0,25.0,63.0,-0.03,0.96,0.25,-1.0,1.0,0.0,ka
0.0,10.0,117.0,94.0,28.0,21.0,25.0,60.0,-0.03,0.96,0.25,-1.0,1.0,0.0,ka
0.0,13.0,117.0,94.0,28.0,20.0,23.0,58.0,-0.03,0.96,0.25,0.0,2.0,0.0,ka
0.0,13.0,117.0,94.0,24.0,20.0,22.0,58.0,-0.03,0.95,0.25,0.0,2.0,0.0,ka
0.0,13.0,117.0,94.0,26.0,20.0,23.0,58.0,-0.03,0.95,0.25,0.0,2.0,0.0,ka
0.0,13.0,117.0,94.0,26.0,20.0,25.0,58.0,-0.03,0.95,0.24,-1.0,2.0,0.0,ka
0.0,14.0,117.0,94.0,24.0,25.0,27.0,58.0,-0.03,0.96,0.25,-1.0,2.0,0.0,ka
0.0,13.0,120.0,94.0,26.0,26.0,25.0,62.0,-0.03,0.95,0.25,-2.0,2.0,-1.0,ka
0.0,13.0,120.0,94.0,28.0,25.0,20.0,60.0,-0.04,0.95,0.25,-2.0,3.0,0.0,ka
0.0,13.0,120.0,94.0,31.0,26.0,17.0,60.0,-0.03,0.96,0.25,-3.0,3.0,-1.0,ka
0.0,16.0,120.0,94.0,28.0,25.0,20.0,62.0,-0.04,0.96,0.25,-3.0,3.0,-1.0,ka
0.0,16.0,120.0,94.0,30.0,25.0,18.0,65.0,-0.04,0.96,0.25,-2.0,3.0,-1.0,ka
0.0,14.0,120.0,94.0,24.0,25.0,18.0,65.0,-0.04,0.96,0.25,-3.0,3.0,0.0,ka
0.0,16.0,120.0,93.0,26.0,25.0,18.0,65.0,-0.04,0.96,0.25,-3.0,3.0,0.0,ka
0.0,16.0,120.0,94.0,26.0,25.0,15.0,65.0,-0.04,0.96,0.25,-4.0,3.0,0.0,ka
0.0,14.0,119.0,94.0,22.0,25.0,15.0,63.0,-0.04,0.96,0.26,-3.0,3.0,0.0,ka
0.0,16.0,119.0,93.0,24.0,22.0,15.0,62.0,-0.04,0.96,0.26,-3.0,3.0,0.0,ka
0.0,16.0,117.0,93.0,26.0,21.0,13.0,62.0,-0.03,0.96,0.26,-3.0,3.0,0.0,ka
0.0,16.0,116.0,92.0,26.0,21.0,11.0,62.0,-0.03,0.95,0.26,-3.0,2.0,0.0,ka
0.0,17.0,116.0,92.0,28.0,21.0,10.0,62.0,-0.03,0.95,0.26,-2.0,2.0,0.0,ka
0.0,13.0,116.0,92.0,30.0,22.0,8.0,60.0,-0.03,0.95,0.27,-2.0,2.0,0.0,ka
0.0,13.0,115.0,93.0,28.0,22.0,8.0,58.0,-0.04,0.95,0.26,-2.0,2.0,0.0,ka
0.0,13.0,116.0,93.0,33.0,22.0,8.0,58.0,-0.03,0.95,0.26,-2.0,2.0,0.0,ka
0.0,11.0,117.0,92.0,33.0,22.0,10.0,60.0,-0.03,0.95,0.26,-2.0,2.0,0.0,ka
0.0,11.0,116.0,90.0,26.0,22.0,11.0,60.0,-0.04,0.95,0.26,-2.0,2.0,0.0,ka
0.0,11.0,117.0,90.0,28.0,22.0,11.0,60.0,-0.04,0.95,0.26,-2.0,2.0,-1.0,ka
0.0,8.0,117.0,91.0,28.0,24.0,11.0,63.0,-0.04,0.95,0.26,-2.0,3.0,0.0,ka
0.0,8.0,117.0,91.0,26.0,25.0,17.0,63.0,-0.04,0.95,0.26,-2.0,3.0,-1.0,ka
0.0,10.0,117.0,91.0,26.0,25.0,17.0,65.0,-0.04,0.95,0.27,0.0,3.0,0.0,ka
0.0,10.0,117.0,91.0,28.0,25.0,18.0,65.0,-0.04,0.95,0.26,-1.0,3.0,0.0,ka
0.0,10.0,117.0,91.0,26.0,25.0,18.0,67.0,-0.04,0.95,0.26,-1.0,2.0,0.0,ka
0.0,11.0,117.0,91.0,24.0,24.0,18.0,67.0,-0.03,0.95,0.26,0.0,3.0,0.0,ka
