idxUp,idxLow,midUp,midLow,ringUp,ringLow,thumb,pinky,ax,ay,az,gx,gy,gz,label
0,55,143,113,369,135,33,325,-0.27,0.92,0.23,0,1,-2,ka
0,55,141,109,344,123,36,303,-0.27,0.92,0.23,0,2,-1,ka
0,55,138,105,316,111,33,284,-0.27,0.92,0.23,0,2,0,ka
0,55,136,103,294,100,36,260,-0.27,0.92,0.23,0,2,0,ka
0,55,134,99,268,88,36,238,-0.27,0.92,0.23,0,1,1,ka
0,55,132,96,246,79,38,221,-0.27,0.93,0.23,0,1,2,ka
0,55,130,93,221,68,41,200,-0.27,0.93,0.22,-1,1,3,ka
0,55,127,90,196,56,41,180,-0.26,0.93,0.22,-2,1,4,ka
0,55,125,86,173,46,43,156,-0.26,0.93,0.22,-1,2,5,ka
0,55,124,84,151,37,43,139,-0.25,0.93,0.22,0,2,6,ka
0,55,123,84,148,35,43,137,-0.24,0.93,0.23,0,2,6,ka
0,57,123,83,148,35,43,137,-0.24,0.93,0.22,0,2,6,ka
0,57,123,83,148,35,43,137,-0.23,0.93,0.23,1,1,5,ka
0,57,123,83,148,35,43,134,-0.22,0.93,0.22,1,0,5,ka
0,57,122,83,145,35,46,134,-0.23,0.93,0.22,1,0,5,ka
0,57,122,83,148,35,43,134,-0.22,0.93,0.22,2,-2,5,ka
0,57,122,83,148,35,43,134,-0.21,0.92,0.22,2,0,3,ka
0,57,122,83,151,35,43,132,-0.21,0.93,0.22,2,-1,2,ka
0,57,122,83,151,35,38,132,-0.21,0.92,0.22,2,-1,0,ka
0,57,122,84,148,35,43,132,-0.21,0.92,0.22,2,-2,0,ka
0,57,123,84,148,35,43,132,-0.21,0.92,0.22,1,-2,0,ka
0,57,123,85,148,35,43,132,-0.21,0.92,0.22,0,-2,0,ka
0,59,123,85,148,35,43,134,-0.21,0.92,0.21,0,-1,0,ka
0,59,123,85,148,35,38,134,-0.21,0.92,0.22,0,0,-1,ka
0,59,124,85,148,35,36,134,-0.19,0.92,0.21,0,0,-2,ka
0,61,124,85,145,35,38,134,-0.2,0.92,0.22,0,2,-2,ka
0,61,124,86,145,37,36,132,-0.2,0.93,0.22,0,1,-1,ka
0,61,124,87,142,35,38,132,-0.21,0.93,0.21,0,1,0,ka
0,61,123,87,142,35,41,132,-0.2,0.93,0.21,0,1,1,ka
0,61,123,86,145,35,36,132,-0.2,0.93,0.2,0,2,1,ka
0,61,122,87,142,35,38,134,-0.19,0.93,0.2,0,2,1,ka
0,61,122,87,142,35,38,134,-0.19,0.93,0.2,0,2,1,ka
0,59,123,86,142,35,38,134,-0.19,0.93,0.19,0,2,1,ka
0,59,122,87,142,35,41,137,-0.19,0.94,0.19,0,2,1,ka
0,59,122,86,142,35,38,137,-0.19,0.94,0.19,0,3,1,ka
0,57,122,87,142,35,36,134,-0.19,0.94,0.19,0,3,1,ka
0,57,122,87,142,35,36,137,-0.19,0.94,0.19,-1,3,0,ka
0,57,122,87,142,35,33,137,-0.18,0.94,0.19,-1,3,0,ka
0,57,122,87,142,35,33,139,-0.19,0.94,0.19,-2,3,0,ka
0,57,122,86,142,35,33,139,-0.19,0.94,0.19,-2,2,0,ka
0,57,123,87,142,35,33,137,-0.19,0.94,0.19,-2,2,0,ka
0,57,123,86,142,35,31,137,-0.19,0.94,0.2,-2,2,0,ka
0,57,123,86,142,34,33,134,-0.19,0.94,0.2,-2,2,0,ka
0,57,123,86,142,34,33,134,-0.19,0.94,0.2,-2,2,0,ka
0,57,123,86,142,34,33,132,-0.19,0.94,0.2,-2,2,0,ka
0,57,123,87,142,34,36,132,-0.19,0.94,0.2,-2,2,1,ka
0,57,123,86,142,34,36,132,-0.18,0.94,0.19,-1,2,1,ka
0,57,122,86,142,34,38,132,-0.18,0.94,0.19,-1,2,1,ka
0,57,123,86,142,34,38,132,-0.18,0.94,0.19,-1,2,1,ka
0,57,122,87,142,34,41,132,-0.18,0.94,0.19,-1,2,1,ka
0,57,122,87,145,35,41,132,-0.18,0.94,0.19,-2,2,1,ka
0,57,122,87,145,35,38,132,-0.18,0.94,0.19,-2,2,0,ka
0,57,122,87,145,34,41,132,-0.17,0.94,0.19,-2,2,0,ka
0,57,122,86,145,35,41,132,-0.17,0.94,0.19,-2,2,0,ka
0,57,122,86,145,35,38,132,-0.17,0.94,0.19,-2,2,0,ka
0,57,122,85,145,35,38,132,-0.17,0.94,0.19,-2,2,0,ka
0,59,122,85,142,35,41,134,-0.17,0.94,0.19,-2,2,0,ka
0,57,122,86,142,37,41,134,-0.17,0.94,0.2,-2,2,0,ka
0,59,122,85,142,37,41,134,-0.17,0.94,0.2,-2,2,0,ka
0,59,122,86,142,35,38,137,-0.17,0.94,0.2,-2,3,0,ka
0,59,122,85,140,35,38,137,-0.17,0.94,0.2,-2,3,0,ka
0,59,122,85,140,35,38,134,-0.17,0.94,0.2,-2,3,0,ka
0,59,122,86,140,35,38,137,-0.18,0.94,0.2,-2,3,0,ka
0,59,122,86,140,35,36,137,-0.18,0.94,0.2,-2,3,0,ka
0,59,122,86,140,35,41,137,-0.18,0.94,0.2,-2,3,0,ka
0,59,122,85,140,35,41,137,-0.18,0.94,0.2,-2,3,0,ka
0,59,122,86,142,35,41,139,-0.18,0.94,0.21,-3,3,0,ka
0,59,122,86,142,34,41,137,-0.18,0.94,0.21,-3,3,0,ka
0,57,122,86,142,34,41,137,-0.17,0.95,0.21,-3,2,0,ka
0,57,122,85,142,34,41,137,-0.17,0.94,0.21,-3,2,0,ka
0,57,122,85,142,34,41,137,-0.17,0.95,0.21,-3,2,0,ka
0,57,121,85,142,34,41,137,-0.18,0.94,0.21,-3,2,0,ka
0,57,121,85,142,34,41,137,-0.17,0.94,0.21,-3,2,0,ka
0,59,121,85,142,34,46,137,-0.17,0.94,0.21,-3,2,0,ka
0,57,121,85,142,34,43,137,-0.17,0.94,0.21,-3,2,0,ka
0,57,121,86,142,34,41,137,-0.17,0.94,0.21,-3,2,0,ka
0,59,121,85,142,34,41,134,-0.17,0.94,0.21,-2,2,0,ka
0,59,120,85,142,35,43,134,-0.17,0.94,0.21,-2,2,0,ka
0,59,121,85,142,35,41,134,-0.17,0.94,0.21,-2,2,0,ka
0,59,121,85,142,34,41,134,-0.16,0.94,0.21,-2,2,0,ka
0,59,121,85,145,34,38,134,-0.16,0.94,0.21,-2,2,0,ka
0,59,120,85,142,34,38,134,-0.16,0.94,0.21,-2,2,0,ka
0,59,121,85,142,34,38,134,-0.16,0.94,0.21,-2,2,0,ka
0,59,121,85,142,34,33,134,-0.16,0.94,0.21,-2,2,0,ka
0,59,121,85,142,34,31,134,-0.16,0.94,0.21,-2,2,0,ka
0,59,121,85,142,34,33,134,-0.16,0.94,0.22,-2,2,0,ka
0,59,121,85,142,34,33,134,-0.16,0.94,0.22,-2,2,0,ka
0,59,122,86,142,32,31,134,-0.16,0.94,0.22,-2,2,0,ka
0,57,121,86,142,32,33,134,-0.16,0.94,0.22,-2,2,0,ka
0,57,122,85,142,32,31,134,-0.16,0.94,0.22,-1,2,0,ka
0,59,121,85,142,32,33,132,-0.16,0.94,0.22,-1,2,0,ka
0,59,122,86,142,32,36,134,-0.16,0.94,0.22,-1,2,0,ka
0,59,122,86,142,32,36,134,-0.16,0.94,0.22,-1,2,0,ka
0,59,122,86,145,32,41,132,-0.16,0.94,0.22,-1,2,0,ka
0,57,121,86,142,34,41,132,-0.16,0.94,0.22,-1,2,0,ka
0,57,121,85,142,34,41,132,-0.16,0.94,0.22,-1,2,0,ka
0,57,121,85,142,34,41,130,-0.16,0.94,0.22,-1,2,0,ka
0,57,121,85,142,34,41,130,-0.16,0.94,0.22,-1,2,0,ka
0,57,121,85,140,35,41,130,-0.16,0.94,0.22,-1,2,0,ka
0,57,121,85,140,35,41,130,-0.16,0.94,0.22,-1,2,0,ka
0,57,121,85,137,35,41,130,-0.16,0.94,0.22,-1,2,0,ka
0,57,121,85,137,35,41,130,-0.16,0.94,0.22,-2,2,0,ka
0,57,121,85,140,35,43,130,-0.16,0.94,0.22,-2,2,0,ka
0,57,121,85,140,35,41,130,-0.16,0.94,0.22,-2,2,0,ka
0,57,121,84,137,35,41,130,-0.16,0.94,0.22,-2,2,0,ka
0,57,121,85,140,35,38,130,-0.16,0.94,0.22,-1,2,0,ka
0,59,121,85,137,34,38,130,-0.16,0.94,0.22,-2,2,0,ka
0,59,122,85,140,34,38,132,-0.16,0.94,0.22,-2,2,0,ka
0,57,122,85,140,34,38,130,-0.16,0.94,0.22,-2,2,0,ka
0,57,122,85,140,34,36,130,-0.16,0.94,0.22,-2,2,0,ka
0,57,122,86,142,34,36,132,-0.16,0.94,0.22,-2,2,0,ka
0,57,122,86,142,34,33,130,-0.16,0.94,0.22,-2,2,0,ka
0,57,122,86,140,34,33,130,-0.16,0.94,0.22,-2,2,0,ka
0,57,122,85,140,34,33,130,-0.16,0.94,0.22,-2,2,0,ka
0,57,122,85,140,34,33,130,-0.16,0.94,0.22,-2,2,0,ka
0,57,122,85,140,34,36,130,-0.16,0.94,0.22,-2,2,0,ka
0,57,122,85,140,35,36,132,-0.16,0.94,0.22,-2,2,-1,ka
0,57,123,85,142,34,33,134,-0.17,0.94,0.22,-2,2,0,ka
0,59,123,85,142,34,33,134,-0.17,0.94,0.22,-2,2,0,ka
0,59,122,84,142,34,36,134,-0.16,0.94,0.22,-1,2,0,ka
0,57,123,84,140,34,36,132,-0.16,0.94,0.22,-2,2,0,ka
0,57,123,84,140,34,31,132,-0.16,0.94,0.22,-1,2,0,ka
0,57,123,84,140,34,29,132,-0.16,0.94,0.22,-1,2,0,ka
0,57,123,84,140,34,29,132,-0.16,0.94,0.22,-1,2,0,ka
0,57,123,83,140,34,29,132,-0.16,0.94,0.22,-1,2,0,ka
0,59,123,83,140,34,26,130,-0.16,0.94,0.22,0,2,0,ka
0,59,122,82,140,34,26,127,-0.16,0.94,0.22,0,2,0,ka
0,59,122,82,140,34,29,125,-0.16,0.94,0.22,-1,2,0,ka
0,57,121,83,140,35,26,125,-0.16,0.94,0.22,-1,2,0,ka
0,59,122,83,140,35,26,125,-0.16,0.94,0.21,-1,2,0,ka
0,59,122,82,140,35,24,125,-0.16,0.94,0.22,-1,2,0,ka
0,59,122,82,140,35,26,125,-0.16,0.94,0.22,-1,2,-1,ka
0,57,121,82,140,35,26,125,-0.17,0.94,0.22,-1,2,-1,ka
0,57,122,83,142,35,29,127,-0.17,0.94,0.22,-1,2,0,ka
0,57,122,83,142,35,29,127,-0.17,0.94,0.22,-1,2,0,ka
0,57,122,83,140,34,31,127,-0.17,0.94,0.22,-1,2,0,ka
0,57,122,83,140,34,29,127,-0.17,0.94,0.22,-1,2,-1,ka
0,57,122,83,137,34,31,130,-0.17,0.94,0.21,-1,2,-1,ka
0,57,122,83,137,32,33,130,-0.17,0.94,0.21,0,2,-1,ka
0,57,122,83,137,32,33,127,-0.17,0.94,0.21,0,2,-1,ka
0,57,121,83,137,32,36,127,-0.17,0.94,0.21,0,2,-1,ka
0,57,121,83,137,32,36,127,-0.17,0.94,0.21,0,1,0,ka
0,57,121,83,137,32,33,127,-0.17,0.94,0.21,0,1,0,ka
0,55,121,83,137,32,31,125,-0.16,0.94,0.21,0,1,0,ka
0,57,121,83,140,32,33,127,-0.17,0.94,0.21,-1,2,0,ka
0,57,122,83,140,32,33,127,-0.17,0.94,0.21,-1,2,0,ka
0,55,122,83,142,32,33,127,-0.17,0.94,0.2,-1,2,0,ka
0,55,122,83,142,32,29,127,-0.17,0.94,0.21,-1,2,0,ka
0,55,122,84,140,32,29,125,-0.17,0.94,0.21,0,2,0,ka
0,55,123,84,142,32,26,127,-0.17,0.94,0.21,0,2,0,ka
0,55,123,84,142,32,26,127,-0.17,0.94,0.21,0,2,0,ka
0,55,123,84,142,34,26,127,-0.17,0.94,0.2,0,2,0,ka
0,57,124,84,140,32,29,127,-0.17,0.94,0.2,0,2,0,ka
0,57,124,84,140,34,29,127,-0.16,0.94,0.2,0,3,-1,ka
0,57,124,83,140,34,29,127,-0.17,0.94,0.2,0,2,-1,ka
0,57,123,82,140,35,26,127,-0.17,0.94,0.2,0,2,0,ka
0,57,123,82,140,35,26,130,-0.17,0.94,0.2,0,2,0,ka
0,57,124,82,140,35,29,130,-0.16,0.95,0.19,0,2,0,ka
0,57,123,81,140,35,29,130,-0.17,0.95,0.2,0,2,0,ka
0,57,123,81,140,35,31,132,-0.17,0.95,0.19,0,2,0,ka
0,57,122,81,140,35,33,130,-0.17,0.95,0.2,0,2,0,ka
0,57,122,82,140,35,31,132,-0.17,0.95,0.2,0,2,0,ka
0,57,122,82,140,35,31,132,-0.17,0.95,0.2,0,2,0,ka
0,57,122,83,140,35,33,132,-0.17,0.95,0.2,0,2,0,ka
0,59,122,84,140,35,31,132,-0.17,0.95,0.2,0,2,0,ka
0,57,121,84,140,34,31,132,-0.16,0.95,0.2,0,2,0,ka
0,57,122,85,140,34,36,132,-0.16,0.95,0.19,0,2,0,ka
0,57,122,84,137,34,33,130,-0.16,0.95,0.19,0,2,0,ka
0,57,122,84,137,34,33,130,-0.16,0.95,0.19,-1,2,0,ka
0,62,122,84,137,34,33,130,-0.16,0.95,0.19,-1,2,0,ka
0,62,123,84,137,34,33,130,-0.16,0.95,0.19,-2,2,0,ka
0,62,124,84,140,34,36,132,-0.16,0.95,0.19,-2,2,0,ka
0,62,124,84,134,34,36,130,-0.16,0.95,0.19,-2,2,0,ka
0,61,124,84,134,34,33,130,-0.16,0.95,0.19,-2,1,0,ka
0,61,124,83,134,32,36,130,-0.16,0.95,0.19,-2,2,0,ka
0,61,125,83,134,32,33,127,-0.16,0.95,0.2,-2,2,0,ka
0,61,124,82,134,32,31,127,-0.16,0.95,0.19,-2,2,0,ka
0,61,124,83,131,32,31,127,-0.16,0.95,0.2,-2,2,0,ka
0,61,124,83,131,32,29,130,-0.16,0.94,0.2,-2,2,0,ka
0,57,124,82,131,32,26,130,-0.16,0.94,0.2,-2,2,0,ka
0,57,125,82,131,32,26,130,-0.16,0.95,0.2,-2,2,0,ka
0,57,125,82,131,32,24,127,-0.16,0.95,0.2,-2,2,0,ka
0,57,125,82,134,32,24,130,-0.16,0.95,0.2,-2,2,0,ka
0,57,124,82,134,32,24,127,-0.16,0.95,0.2,-2,2,0,ka
0,57,125,82,134,34,26,127,-0.16,0.95,0.2,-2,3,0,ka
0,57,125,81,134,32,24,127,-0.16,0.95,0.2,-2,2,0,ka
0,57,125,82,131,32,26,127,-0.16,0.95,0.2,-2,2,0,ka
0,57,125,82,134,31,29,127,-0.16,0.95,0.2,-2,2,0,ka
0,57,125,82,134,31,29,127,-0.15,0.95,0.2,-2,2,0,ka
0,57,125,82,134,31,29,125,-0.15,0.95,0.2,-2,2,0,ka
0,57,124,82,134,31,29,127,-0.15,0.95,0.2,-2,2,0,ka
0,57,124,83,134,31,26,127,-0.15,0.95,0.2,-2,2,0,ka
0,57,124,83,134,31,29,127,-0.15,0.95,0.2,-2,2,0,ka
0,57,125,83,131,31,29,127,-0.15,0.95,0.2,-2,2,0,ka
0,59,125,83,134,31,26,127,-0.15,0.95,0.2,-2,2,0,ka
0,59,125,83,134,31,29,127,-0.15,0.95,0.2,-2,2,0,ka
0,59,125,83,137,31,29,127,-0.16,0.95,0.2,-2,2,0,ka
0,57,124,83,137,32,26,127,-0.16,0.95,0.2,-2,2,0,ka
0,57,124,83,137,32,29,127,-0.16,0.95,0.2,-2,3,0,ka
0,57,125,82,137,32,31,125,-0.16,0.95,0.2,-2,2,0,ka
0,57,125,82,134,32,29,125,-0.16,0.95,0.2,-2,2,0,ka
0,57,125,82,134,32,31,125,-0.16,0.95,0.2,-2,2,0,ka
0,57,125,82,134,32,31,125,-0.16,0.95,0.2,-2,2,0,ka
0,57,125,81,137,32,33,127,-0.16,0.95,0.2,-2,2,0,ka
0,57,125,82,137,32,33,127,-0.16,0.95,0.2,-2,2,0,ka
0,57,125,82,137,32,33,127,-0.16,0.95,0.2,-2,2,0,ka
0,57,125,82,134,32,33,127,-0.16,0.95,0.2,-2,2,0,ka
0,59,125,82,134,32,33,127,-0.16,0.95,0.2,-1,2,0,ka
0,59,126,83,134,32,33,127,-0.16,0.95,0.2,-1,2,0,ka
0,59,125,83,134,34,31,127,-0.16,0.95,0.2,-1,2,0,ka
0,57,125,83,137,32,31,130,-0.16,0.95,0.2,-2,2,0,ka
0,57,125,83,137,32,33,130,-0.16,0.95,0.2,-2,2,0,ka
0,57,125,83,137,32,31,127,-0.16,0.95,0.2,-1,2,0,ka
0,57,125,83,137,32,31,127,-0.16,0.95,0.2,-2,2,0,ka
0,57,125,83,137,31,29,130,-0.16,0.95,0.2,-2,2,0,ka
0,57,125,82,137,32,31,130,-0.16,0.95,0.2,-2,2,0,ka
0,57,126,82,137,32,26,125,-0.16,0.95,0.2,-2,2,0,ka
0,57,125,82,137,32,26,127,-0.16,0.95,0.2,-2,2,0,ka
0,57,125,82,137,32,26,125,-0.16,0.95,0.2,-2,2,0,ka
0,57,124,82,137,32,26,125,-0.16,0.95,0.2,-2,2,0,ka
0,57,124,82,137,34,26,125,-0.16,0.94,0.2,-2,2,0,ka
0,57,124,81,137,34,24,125,-0.16,0.95,0.2,-2,2,0,ka
0,57,124,81,137,34,26,125,-0.16,0.94,0.2,-2,2,0,ka
0,57,124,81,137,34,24,125,-0.16,0.94,0.2,-2,2,0,ka
0,57,124,81,137,34,26,125,-0.16,0.94,0.2,-2,2,0,ka
0,57,124,81,140,34,26,125,-0.16,0.94,0.2,-2,2,0,ka
0,57,124,81,137,34,29,127,-0.16,0.94,0.2,-2,2,0,ka
0,55,124,81,140,34,26,125,-0.16,0.94,0.2,-2,2,0,ka
0,55,124,82,140,34,24,125,-0.16,0.94,0.2,-2,2,0,ka
0,55,124,82,140,34,24,125,-0.16,0.95,0.2,-2,2,0,ka
0,55,124,83,140,34,26,125,-0.16,0.95,0.2,-2,2,0,ka
0,57,124,83,140,34,29,125,-0.16,0.95,0.2,-2,2,0,ka
0,57,124,83,137,34,26,125,-0.16,0.95,0.2,-2,2,0,ka
0,57,124,83,137,34,26,125,-0.16,0.95,0.2,-1,2,0,ka
0,57,124,84,137,34,29,127,-0.16,0.95,0.2,-1,2,0,ka
0,57,124,84,137,34,24,127,-0.16,0.95,0.2,-1,2,0,ka
0,57,123,84,140,34,24,127,-0.16,0.95,0.2,-1,2,0,ka
0,57,123,84,140,34,24,130,-0.16,0.95,0.2,-1,2,0,ka
0,59,123,83,137,34,26,130,-0.16,0.95,0.2,-1,2,0,ka
0,61,124,83,137,34,26,130,-0.16,0.95,0.2,-1,2,0,ka
0,61,125,82,137,32,26,132,-0.16,0.95,0.2,-2,2,0,ka
0,59,125,83,137,32,24,132,-0.16,0.95,0.2,-1,2,0,ka
0,59,124,82,137,32,24,132,-0.16,0.95,0.2,-2,2,0,ka
0,57,124,82,137,31,24,132,-0.16,0.95,0.2,-2,2,0,ka
0,57,124,82,137,31,24,130,-0.16,0.95,0.2,-2,2,0,ka
0,57,124,82,137,31,26,130,-0.16,0.95,0.2,-2,2,0,ka
0,57,124,81,134,31,29,130,-0.16,0.95,0.2,-1,2,0,ka
0,57,124,81,134,31,29,130,-0.15,0.95,0.2,-1,2,0,ka
0,57,124,81,137,31,26,130,-0.15,0.95,0.2,-2,2,0,ka
0,55,123,81,137,31,29,130,-0.15,0.95,0.2,-2,2,0,ka
0,53,123,81,137,31,29,125,-0.15,0.95,0.2,-2,2,0,ka
0,55,123,82,134,31,29,125,-0.15,0.95,0.2,-2,2,0,ka
0,55,123,82,134,31,29,125,-0.15,0.95,0.2,-2,2,0,ka
0,55,123,82,134,31,29,125,-0.15,0.94,0.2,-2,2,0,ka
0,55,123,82,134,31,29,125,-0.15,0.94,0.2,-2,2,0,ka
0,55,123,82,137,31,29,125,-0.15,0.95,0.2,-2,2,0,ka
0,55,123,82,137,32,29,125,-0.15,0.95,0.2,-2,2,0,ka
0,55,123,82,137,32,29,125,-0.15,0.95,0.2,-2,2,0,ka
0,55,124,83,137,32,31,125,-0.15,0.95,0.2,-1,2,0,ka
0,55,124,82,134,31,31,125,-0.15,0.95,0.2,-1,2,0,ka
0,55,124,82,134,31,29,127,-0.15,0.95,0.2,-1,2,0,ka
0,55,124,82,134,31,31,127,-0.15,0.95,0.2,-1,2,0,ka
0,55,125,82,137,31,33,127,-0.15,0.95,0.2,-1,2,0,ka
0,55,124,82,137,31,33,125,-0.15,0.95,0.2,-1,2,0,ka
0,55,124,82,137,31,31,125,-0.15,0.95,0.2,-1,2,0,ka
0,55,125,82,137,31,29,127,-0.15,0.95,0.19,-1,2,0,ka
0,55,125,82,134,31,31,127,-0.15,0.95,0.19,-1,2,0,ka
0,55,125,82,137,31,31,130,-0.15,0.95,0.2,-1,2,0,ka
0,57,125,81,137,32,29,132,-0.15,0.95,0.19,-1,2,0,ka
0,57,125,82,137,32,29,132,-0.16,0.95,0.19,-1,2,0,ka
0,57,125,82,137,32,29,132,-0.16,0.95,0.19,-1,2,0,ka
0,59,125,82,137,32,29,134,-0.16,0.95,0.19,-1,2,0,ka
0,59,125,82,137,32,29,132,-0.16,0.95,0.19,-2,2,0,ka
0,59,125,82,137,32,29,134,-0.16,0.95,0.19,-2,2,0,ka
0,59,125,81,137,32,29,134,-0.16,0.95,0.2,-2,2,0,ka
0,59,124,82,137,32,29,134,-0.16,0.95,0.2,-2,2,0,ka
0,59,124,82,137,32,29,132,-0.16,0.95,0.2,-2,2,0,ka
0,59,124,82,137,32,26,132,-0.16,0.95,0.2,-2,2,0,ka
0,61,124,82,137,31,29,130,-0.16,0.95,0.2,-2,2,0,ka
0,61,124,82,137,32,29,130,-0.16,0.95,0.2,-2,2,0,ka
0,61,124,82,140,32,29,130,-0.16,0.95,0.2,-2,2,0,ka
0,59,124,82,137,32,29,130,-0.16,0.95,0.19,-2,3,0,ka
0,59,124,83,137,32,29,132,-0.16,0.95,0.19,-2,2,0,ka
0,59,124,83,137,32,31,132,-0.16,0.95,0.19,-2,3,0,ka
0,59,123,83,137,32,31,132,-0.16,0.95,0.2,-2,2,0,ka
0,59,124,83,137,32,31,132,-0.16,0.95,0.19,-2,2,0,ka
0,59,124,83,137,31,31,132,-0.16,0.95,0.19,-2,3,0,ka
0,57,124,82,134,32,31,132,-0.16,0.95,0.19,-2,2,0,ka
0,55,124,82,134,31,29,130,-0.16,0.95,0.19,-2,3,0,ka
0,55,124,82,131,31,29,130,-0.16,0.95,0.19,-2,2,0,ka
0,53,124,82,131,31,26,130,-0.16,0.95,0.19,-2,2,0,ka
0,53,124,82,131,31,26,130,-0.16,0.95,0.19,-2,2,0,ka
0,53,124,82,131,31,26,127,-0.16,0.95,0.19,-2,2,0,ka
0,53,125,82,131,31,24,125,-0.16,0.95,0.19,-2,2,0,ka
0,53,125,82,134,31,24,125,-0.16,0.95,0.19,-2,2,0,ka
0,53,125,82,134,31,24,125,-0.16,0.95,0.19,-2,2,0,ka
0,53,125,82,131,31,24,127,-0.16,0.95,0.19,-2,2,0,ka
0,53,125,81,131,31,24,127,-0.16,0.95,0.19,-2,2,0,ka
0,53,125,82,134,31,26,127,-0.16,0.95,0.19,-1,2,0,ka
0,55,124,82,134,31,26,127,-0.16,0.95,0.19,-2,2,0,ka
0,55,125,82,134,31,26,125,-0.15,0.95,0.19,-1,2,0,ka
0,55,124,81,134,31,26,125,-0.16,0.95,0.19,-1,2,0,ka
0,55,124,81,134,29,26,125,-0.16,0.95,0.19,-1,2,0,ka
0,53,124,81,134,29,24,125,-0.16,0.95,0.19,-2,2,0,ka
0,55,124,81,131,29,26,127,-0.16,0.95,0.19,-1,2,0,ka
0,55,124,82,131,31,24,127,-0.16,0.95,0.19,-1,2,0,ka
0,55,124,81,131,31,24,127,-0.16,0.95,0.2,-1,2,0,ka
0,55,124,82,131,29,21,127,-0.16,0.95,0.19,-1,2,0,ka
0,55,124,82,131,29,21,127,-0.16,0.95,0.19,-2,2,0,ka
0,55,125,82,131,31,21,127,-0.15,0.95,0.19,-2,2,0,ka
0,55,125,82,131,31,21,127,-0.15,0.95,0.19,-2,2,0,ka
0,55,125,82,131,31,21,127,-0.15,0.95,0.19,-1,2,0,ka
0,57,125,83,131,31,21,127,-0.15,0.95,0.19,-2,2,0,ka
0,57,125,83,134,31,24,127,-0.16,0.95,0.19,-2,2,0,ka
0,57,124,83,134,31,24,125,-0.16,0.95,0.2,-2,2,0,ka
0,57,124,83,134,31,26,127,-0.16,0.95,0.2,-2,2,0,ka
0,57,124,83,137,31,26,127,-0.16,0.95,0.2,-2,2,0,ka
0,57,124,82,134,31,29,125,-0.16,0.95,0.2,-2,2,0,ka
0,57,124,82,134,31,29,127,-0.16,0.95,0.19,-2,2,0,ka
0,57,124,82,134,31,26,127,-0.16,0.95,0.2,-2,2,0,ka
0,57,124,82,134,31,29,127,-0.16,0.95,0.19,-2,2,0,ka
0,57,124,82,134,31,29,127,-0.16,0.95,0.19,-2,2,0,ka
0,57,125,82,134,31,29,125,-0.16,0.95,0.19,-2,2,0,ka
0,57,124,82,134,31,29,127,-0.16,0.95,0.19,-2,2,0,ka
0,57,124,81,134,31,26,127,-0.16,0.95,0.19,-2,2,0,ka
0,57,124,81,131,31,26,127,-0.16,0.95,0.19,-2,2,0,ka
0,57,124,81,131,31,29,127,-0.16,0.95,0.19,-2,2,0,ka
0,57,123,82,134,29,26,127,-0.16,0.95,0.19,-2,2,0,ka
0,57,124,82,131,29,26,125,-0.16,0.95,0.19,-2,2,0,ka
0,55,124,81,131,29,21,125,-0.15,0.95,0.19,-2,2,0,ka
0,55,124,81,131,31,21,125,-0.15,0.95,0.19,-2,2,0,ka
0,57,124,81,131,31,21,125,-0.16,0.95,0.2,-2,2,0,ka
0,55,124,81,134,31,21,125,-0.16,0.95,0.19,-2,2,0,ka
0,57,125,82,131,31,21,125,-0.16,0.95,0.2,-2,3,0,ka
0,57,125,82,131,31,21,125,-0.16,0.95,0.2,-2,2,0,ka
0,57,125,81,131,31,21,125,-0.16,0.95,0.2,-2,3,0,ka
0,57,125,81,134,31,21,125,-0.16,0.95,0.2,-2,2,0,ka
0,57,126,81,134,32,24,122,-0.16,0.95,0.2,-2,3,0,ka
0,57,124,82,134,32,24,122,-0.16,0.95,0.2,-1,2,0,ka
0,57,124,82,134,32,26,120,-0.16,0.95,0.2,-2,2,0,ka
0,57,124,82,137,31,26,122,-0.16,0.95,0.2,-1,2,0,ka
0,57,124,82,137,31,26,120,-0.16,0.95,0.2,-1,2,0,ka
0,57,124,82,134,31,26,120,-0.16,0.95,0.2,-1,2,0,ka
0,57,124,82,137,31,24,120,-0.16,0.95,0.2,-1,2,0,ka
0,55,124,82,134,31,24,122,-0.15,0.95,0.2,0,2,0,ka
0,55,124,82,137,29,24,120,-0.15,0.94,0.2,0,2,0,ka
0,57,124,82,134,29,26,120,-0.15,0.95,0.19,0,2,0,ka
0,55,124,82,131,29,26,120,-0.15,0.95,0.19,-1,1,0,ka
0,57,125,81,134,29,24,122,-0.15,0.95,0.19,-1,2,0,ka
0,57,125,81,134,29,24,122,-0.15,0.95,0.19,-1,2,0,ka
0,57,125,81,131,28,24,120,-0.15,0.95,0.19,-1,2,0,ka
0,57,125,81,131,29,21,122,-0.15,0.95,0.19,-2,2,0,ka
0,57,125,82,131,28,21,122,-0.15,0.95,0.19,-2,2,0,ka
0,57,125,82,131,28,24,122,-0.15,0.95,0.19,-2,2,0,ka
0,57,125,82,131,29,24,122,-0.15,0.95,0.19,-2,2,0,ka
0,57,125,82,126,29,24,125,-0.15,0.95,0.19,-2,2,0,ka
0,57,125,82,128,29,21,127,-0.15,0.95,0.19,-2,3,0,ka
0,59,124,82,126,29,21,127,-0.15,0.95,0.19,-2,2,0,ka
0,59,125,82,126,31,24,127,-0.15,0.95,0.19,-2,2,0,ka
0,59,125,83,126,31,26,130,-0.16,0.95,0.19,-2,2,0,ka
0,59,125,82,128,32,26,130,-0.16,0.95,0.19,-2,2,0,ka
0,59,125,82,128,32,26,127,-0.16,0.95,0.19,-1,2,0,ka
0,57,125,82,128,31,29,127,-0.15,0.95,0.19,-1,2,0,ka
0,59,125,82,131,32,31,127,-0.15,0.95,0.19,-1,2,0,ka
0,57,125,81,131,31,31,127,-0.15,0.95,0.19,-1,2,0,ka
0,57,125,82,134,31,31,127,-0.15,0.95,0.19,-1,2,0,ka
0,57,125,81,134,31,33,127,-0.15,0.95,0.19,-2,2,0,ka
0,55,125,81,134,31,31,127,-0.15,0.95,0.19,-2,2,0,ka
0,55,125,81,134,32,29,127,-0.15,0.95,0.19,-2,2,0,ka
0,55,124,81,134,32,29,127,-0.15,0.95,0.19,-2,2,0,ka
0,53,124,81,134,31,29,127,-0.15,0.95,0.19,-2,2,0,ka
0,55,124,81,134,31,31,125,-0.15,0.95,0.19,-2,2,0,ka
0,55,124,81,134,32,31,127,-0.15,0.95,0.19,-2,2,0,ka
0,55,124,81,134,32,29,127,-0.15,0.95,0.19,-1,2,0,ka
0,55,124,81,134,31,29,127,-0.15,0.95,0.19,-2,2,0,ka
0,55,124,81,137,31,26,127,-0.15,0.95,0.19,-1,2,0,ka
0,55,124,81,140,32,26,127,-0.15,0.95,0.19,-2,2,0,ka
0,55,124,81,137,31,26,127,-0.15,0.95,0.19,-1,2,0,ka
0,55,124,81,137,31,26,127,-0.15,0.95,0.19,-2,2,0,ka
0,55,124,81,137,31,29,127,-0.15,0.95,0.19,-1,2,0,ka
0,55,124,81,134,31,26,127,-0.15,0.95,0.19,-2,2,0,ka
0,55,124,81,134,31,24,130,-0.15,0.95,0.19,-2,2,0,ka
0,55,124,81,134,29,21,130,-0.15,0.95,0.19,-2,2,0,ka
0,53,124,81,134,29,21,130,-0.15,0.95,0.19,-2,2,0,ka
0,53,124,81,137,29,24,130,-0.15,0.95,0.19,-2,2,0,ka
0,55,124,81,134,29,24,132,-0.15,0.95,0.19,-2,3,0,ka
0,53,124,81,134,31,24,132,-0.15,0.95,0.19,-2,2,0,ka
0,53,124,81,134,31,26,132,-0.15,0.95,0.2,-2,3,0,ka
0,53,124,81,134,31,24,132,-0.15,0.95,0.2,-2,2,0,ka
0,53,124,81,134,31,24,132,-0.15,0.95,0.19,-2,2,0,ka
0,53,124,81,137,31,26,134,-0.15,0.95,0.2,-1,2,0,ka
0,53,125,80,137,31,24,130,-0.15,0.95,0.2,-1,2,0,ka
0,53,125,81,137,32,29,130,-0.15,0.95,0.19,-1,2,0,ka
0,53,125,80,137,32,29,132,-0.15,0.95,0.19,-1,2,0,ka
0,53,125,80,137,32,26,132,-0.15,0.95,0.19,-1,2,0,ka
0,53,125,81,137,32,29,132,-0.15,0.95,0.19,-1,2,0,ka
0,55,125,81,137,32,29,130,-0.15,0.95,0.19,-2,2,0,ka
0,57,125,81,137,32,29,130,-0.15,0.95,0.19,-2,2,0,ka
0,55,125,81,137,32,31,130,-0.15,0.95,0.19,-2,2,0,ka
0,55,125,81,137,31,31,127,-0.15,0.95,0.19,-2,2,0,ka
0,55,125,81,137,31,31,127,-0.15,0.95,0.19,-2,2,0,ka
0,55,126,81,137,31,29,127,-0.15,0.95,0.19,-2,2,0,ka
0,55,126,81,137,31,29,127,-0.15,0.95,0.19,-2,2,0,ka
0,55,126,81,137,31,29,127,-0.15,0.95,0.19,-2,2,0,ka
0,55,126,81,137,31,26,125,-0.15,0.95,0.19,-2,2,0,ka
0,55,126,81,137,31,26,122,-0.15,0.95,0.19,-2,2,0,ka
0,55,126,81,137,29,26,122,-0.15,0.95,0.19,-1,2,0,ka
0,55,126,82,134,29,26,122,-0.15,0.95,0.19,-1,2,0,ka
0,53,126,82,134,29,26,122,-0.15,0.95,0.19,-1,2,0,ka
0,53,126,81,134,29,26,120,-0.15,0.95,0.19,-1,2,0,ka
0,53,126,81,134,29,26,120,-0.15,0.95,0.19,-1,2,0,ka
0,53,125,81,134,29,29,120,-0.15,0.95,0.19,-1,2,0,ka
0,53,125,81,131,29,29,122,-0.15,0.95,0.19,-1,2,0,ka
0,53,125,81,131,29,29,122,-0.15,0.95,0.19,-2,2,0,ka
0,51,124,81,128,31,31,122,-0.15,0.95,0.19,-2,2,0,ka
0,51,124,81,128,31,29,122,-0.15,0.95,0.19,-2,2,0,ka
0,51,124,81,128,31,31,122,-0.15,0.95,0.19,-3,2,0,ka
0,51,124,81,128,31,33,122,-0.15,0.95,0.2,-2,2,0,ka
0,51,124,81,128,31,33,122,-0.15,0.95,0.2,-2,2,0,ka
0,53,124,82,131,31,38,122,-0.15,0.95,0.2,-2,2,0,ka
0,53,124,82,131,31,38,122,-0.15,0.95,0.2,-2,2,0,ka
0,53,124,82,128,31,41,122,-0.15,0.95,0.2,-2,2,0,ka
0,55,124,82,131,31,43,122,-0.15,0.95,0.2,-2,2,0,ka
0,55,124,82,134,31,43,122,-0.15,0.95,0.2,-2,2,0,ka
0,57,124,82,134,29,43,122,-0.15,0.95,0.2,-2,2,0,ka
0,57,124,82,134,29,46,122,-0.15,0.95,0.2,-1,2,0,ka
0,59,124,82,134,29,43,122,-0.15,0.95,0.2,0,2,0,ka
0,59,124,82,134,29,41,122,-0.15,0.95,0.2,-1,2,0,ka
0,59,124,82,131,29,38,122,-0.15,0.95,0.2,-1,2,0,ka
0,57,123,81,131,29,36,122,-0.15,0.95,0.2,-1,2,0,ka
0,57,124,81,131,29,36,122,-0.15,0.95,0.2,-1,2,-1,ka
0,57,124,81,131,29,33,122,-0.15,0.95,0.2,-1,2,0,ka
0,57,124,81,131,31,33,122,-0.15,0.95,0.2,-1,2,0,ka
0,57,123,81,128,31,31,122,-0.15,0.95,0.2,-1,2,0,ka
0,57,123,81,128,29,31,122,-0.15,0.95,0.2,-2,2,0,ka
0,57,123,80,128,29,29,122,-0.15,0.95,0.2,-1,2,0,ka
0,57,123,80,128,29,31,122,-0.15,0.95,0.19,-2,2,0,ka
0,57,123,80,128,29,33,125,-0.15,0.95,0.19,-1,2,0,ka
0,57,123,80,128,29,31,125,-0.15,0.95,0.19,-1,2,0,ka
0,57,124,80,128,29,31,125,-0.15,0.95,0.19,-1,2,0,ka
0,57,123,80,131,29,31,125,-0.15,0.95,0.19,-2,2,0,ka
0,55,123,80,128,29,29,125,-0.15,0.95,0.19,-1,2,0,ka
0,57,123,80,131,29,29,125,-0.15,0.95,0.19,-2,2,0,ka
0,55,124,80,131,29,31,127,-0.15,0.95,0.19,-2,2,0,ka
0,55,123,80,131,29,31,127,-0.15,0.95,0.19,-2,2,0,ka
0,57,124,80,131,29,29,125,-0.15,0.95,0.19,-2,2,0,ka
0,57,124,80,131,31,29,127,-0.15,0.95,0.2,-1,2,0,ka
0,55,124,81,131,29,26,125,-0.15,0.95,0.2,-1,2,0,ka
0,55,124,80,131,29,26,122,-0.15,0.95,0.19,-1,2,0,ka
0,55,123,80,131,29,26,122,-0.15,0.95,0.19,-1,2,0,ka
0,55,123,80,131,29,26,125,-0.15,0.95,0.19,0,2,0,ka
0,55,123,80,131,29,26,125,-0.15,0.95,0.19,-1,2,0,ka
0,55,123,80,131,29,26,125,-0.15,0.95,0.19,-1,2,0,ka
0,53,123,79,128,29,26,125,-0.15,0.95,0.19,0,2,0,ka
0,55,124,80,131,29,26,122,-0.15,0.95,0.19,0,2,0,ka
0,53,123,80,131,29,26,122,-0.15,0.95,0.19,-1,2,0,ka
0,53,123,80,128,29,26,122,-0.15,0.95,0.19,-1,2,0,ka
0,57,123,80,128,29,29,122,-0.15,0.95,0.19,-2,2,0,ka
0,57,124,80,128,31,26,122,-0.15,0.95,0.19,-1,2,0,ka
0,57,124,81,128,29,29,122,-0.15,0.95,0.19,-1,2,0,ka
0,59,124,81,128,29,29,122,-0.16,0.95,0.19,-1,2,0,ka
0,59,124,82,128,29,26,122,-0.16,0.94,0.19,-2,2,0,ka
0,57,124,82,128,29,26,120,-0.15,0.95,0.19,-1,2,0,ka
0,57,124,83,131,31,29,120,-0.15,0.95,0.19,-2,2,0,ka
0,59,125,82,131,31,29,122,-0.15,0.95,0.19,-3,1,0,ka
0,59,125,82,131,31,31,122,-0.15,0.95,0.2,-2,1,0,ka
0,57,124,82,131,31,33,122,-0.15,0.95,0.2,-2,1,0,ka
0,57,124,83,131,31,36,122,-0.15,0.95,0.2,-2,1,0,ka
0,57,124,82,134,31,38,122,-0.15,0.95,0.2,-2,1,0,ka
0,57,124,82,134,32,41,122,-0.15,0.95,0.2,-2,2,0,ka
0,55,124,82,134,32,46,122,-0.15,0.95,0.2,-2,2,0,ka
0,55,124,81,134,32,46,125,-0.15,0.95,0.2,-2,2,0,ka
0,55,124,81,134,32,48,122,-0.15,0.95,0.2,-2,2,0,ka
0,55,123,81,134,32,50,122,-0.15,0.95,0.2,-1,2,0,ka
0,57,121,81,131,32,48,120,-0.15,0.95,0.2,0,2,-1,ka
0,55,121,81,131,31,46,122,-0.15,0.95,0.2,0,2,-1,ka
0,57,121,81,131,32,46,125,-0.15,0.95,0.2,0,2,-1,ka
0,57,122,81,131,31,43,122,-0.15,0.95,0.19,0,2,-1,ka
0,57,121,81,131,31,43,122,-0.15,0.95,0.2,0,2,-1,ka
0,57,121,81,131,31,41,122,-0.15,0.95,0.19,0,2,-1,ka
0,57,120,81,128,31,38,122,-0.15,0.95,0.19,-1,2,0,ka
0,57,120,81,128,31,38,122,-0.15,0.95,0.19,0,2,0,ka
0,57,120,81,126,31,38,125,-0.15,0.95,0.19,-1,2,0,ka
0,57,120,80,123,31,36,125,-0.15,0.95,0.19,-1,2,0,ka
0,55,121,80,126,31,33,125,-0.15,0.95,0.19,-1,2,0,ka
0,55,120,80,126,31,33,125,-0.15,0.95,0.19,-2,2,0,ka
0,57,120,80,126,31,33,122,-0.15,0.95,0.19,-1,2,0,ka
0,57,120,80,126,31,31,125,-0.15,0.95,0.19,-1,2,0,ka
0,55,119,79,126,31,29,125,-0.15,0.95,0.19,-1,2,0,ka
0,55,120,80,123,29,29,125,-0.15,0.95,0.19,-1,2,0,ka
0,55,120,80,126,31,31,125,-0.15,0.95,0.19,-1,2,0,ka
0,55,120,79,126,31,31,125,-0.15,0.94,0.19,-1,2,0,ka
0,55,120,80,128,31,31,125,-0.15,0.95,0.19,-1,2,0,ka
0,55,120,80,128,29,31,127,-0.15,0.95,0.19,0,2,0,ka
0,55,120,80,128,31,33,125,-0.15,0.95,0.19,-1,2,0,ka
0,55,121,79,128,31,33,125,-0.15,0.95,0.19,0,2,0,ka
0,55,121,80,128,32,36,125,-0.15,0.95,0.19,-1,2,0,ka
0,55,121,80,128,31,38,125,-0.15,0.95,0.19,-1,2,0,ka
0,57,121,80,128,32,38,125,-0.15,0.95,0.19,-1,2,0,ka
0,57,121,80,131,32,38,122,-0.16,0.95,0.19,-2,2,-1,ka
0,11,165,100,389,141,0,339,-0.25,0.9,0.31,-2,1,0,kha
0,11,163,96,366,131,0,313,-0.25,0.9,0.31,-3,1,1,kha
0,13,160,94,341,119,0,289,-0.25,0.9,0.32,-3,1,2,kha
0,13,157,90,310,107,0,267,-0.24,0.9,0.31,-3,1,2,kha
0,13,155,87,282,95,0,245,-0.24,0.9,0.32,-4,1,3,kha
0,11,152,83,257,82,0,224,-0.24,0.9,0.32,-4,1,3,kha
0,11,149,80,226,71,0,202,-0.24,0.9,0.32,-4,2,4,kha
0,11,147,77,198,59,0,178,-0.24,0.91,0.32,-4,2,5,kha
0,9,144,73,173,47,0,154,-0.23,0.9,0.32,-4,3,6,kha
0,9,142,71,148,37,0,137,-0.22,0.9,0.32,-4,3,7,kha
0,11,142,71,148,35,0,134,-0.21,0.9,0.33,-4,3,7,kha
0,9,142,72,148,35,0,134,-0.2,0.9,0.33,-4,3,7,kha
0,7,142,72,148,35,0,134,-0.2,0.9,0.34,-5,3,7,kha
0,7,142,72,148,35,0,134,-0.19,0.9,0.34,-4,2,7,kha
0,5,142,72,148,35,0,134,-0.18,0.9,0.35,-3,-2,7,kha
0,3,142,73,145,35,0,134,-0.17,0.9,0.35,-3,-3,7,kha
0,3,142,73,148,34,0,134,-0.16,0.9,0.35,-5,-3,6,kha
0,5,142,73,148,34,0,132,-0.15,0.9,0.36,-5,-3,4,kha
0,5,142,73,148,34,0,132,-0.14,0.9,0.37,-4,-4,3,kha
0,5,142,73,145,34,0,130,-0.15,0.9,0.37,-3,-5,2,kha
0,5,142,73,145,34,0,132,-0.14,0.9,0.38,-3,-6,2,kha
0,5,142,73,148,32,0,130,-0.14,0.9,0.38,-2,-5,2,kha
0,5,143,73,148,32,0,127,-0.13,0.9,0.38,-2,-5,2,kha
0,3,144,73,148,32,0,127,-0.13,0.9,0.38,-2,-5,2,kha
0,3,144,73,148,32,0,127,-0.12,0.9,0.38,-2,-1,1,kha
0,3,144,73,151,32,0,127,-0.12,0.9,0.38,-2,1,1,kha
0,0,144,73,151,32,0,127,-0.12,0.9,0.38,0,0,1,kha
0,0,144,73,151,32,0,130,-0.12,0.9,0.37,0,0,2,kha
0,0,144,73,148,32,0,130,-0.11,0.9,0.37,0,1,2,kha
0,0,144,73,151,32,0,130,-0.11,0.9,0.37,-1,2,1,kha
0,0,144,72,154,32,0,130,-0.11,0.9,0.37,-1,2,1,kha
0,0,143,72,151,34,0,130,-0.1,0.9,0.37,-1,2,1,kha
0,0,142,71,148,32,0,130,-0.1,0.9,0.37,-1,2,1,kha
0,1,142,71,148,34,0,130,-0.1,0.9,0.37,-1,2,0,kha
0,3,142,72,148,32,0,130,-0.1,0.9,0.37,-1,2,0,kha
0,1,141,71,145,34,0,130,-0.11,0.9,0.37,-2,2,0,kha
0,3,142,71,145,32,0,127,-0.11,0.91,0.37,-2,2,0,kha
0,1,142,70,145,32,0,127,-0.11,0.91,0.37,-2,3,0,kha
0,3,142,71,148,32,0,127,-0.1,0.91,0.37,-2,3,0,kha
0,3,142,70,148,32,0,127,-0.1,0.91,0.37,-2,3,0,kha
0,1,142,70,145,32,0,127,-0.1,0.91,0.37,-2,2,0,kha
0,1,142,71,148,32,0,127,-0.1,0.91,0.38,-2,2,0,kha
0,0,142,71,148,32,0,125,-0.1,0.91,0.37,-2,2,0,kha
0,0,142,70,145,32,0,125,-0.1,0.91,0.38,-2,2,0,kha
0,0,142,70,148,32,0,127,-0.1,0.91,0.38,-2,2,0,kha
0,0,142,70,148,32,0,127,-0.1,0.91,0.38,-2,2,0,kha
0,0,141,71,145,32,0,125,-0.1,0.91,0.38,-2,2,0,kha
0,0,141,72,145,34,0,127,-0.1,0.91,0.38,-2,2,0,kha
0,0,141,72,145,32,0,125,-0.09,0.91,0.38,-2,2,0,kha
0,0,142,72,142,32,0,125,-0.09,0.9,0.38,-2,2,0,kha
0,0,142,72,142,32,0,125,-0.09,0.9,0.38,-2,2,0,kha
0,0,142,72,142,32,0,125,-0.09,0.9,0.38,-2,2,0,kha
0,0,142,72,142,32,0,125,-0.09,0.9,0.38,-2,2,0,kha
0,0,142,72,145,32,0,125,-0.09,0.9,0.38,-2,2,0,kha
0,0,142,72,145,32,0,122,-0.09,0.9,0.38,-2,2,0,kha
0,0,142,71,145,34,0,122,-0.09,0.9,0.38,-2,2,0,kha
0,0,142,70,145,32,0,122,-0.09,0.9,0.38,-2,3,0,kha
0,0,142,70,140,32,0,122,-0.1,0.9,0.38,-2,3,0,kha
0,0,142,69,142,32,0,122,-0.1,0.9,0.38,-2,3,-1,kha
0,0,142,69,140,32,0,120,-0.1,0.91,0.38,-2,3,0,kha
0,0,143,69,140,32,0,122,-0.1,0.9,0.39,-2,2,0,kha
0,0,142,69,137,32,0,120,-0.1,0.9,0.38,-2,2,0,kha
0,0,142,69,137,31,0,120,-0.1,0.9,0.38,-2,2,0,kha
0,0,142,69,137,31,0,120,-0.1,0.9,0.39,-2,2,0,kha
0,0,142,69,134,31,0,122,-0.1,0.91,0.38,-1,2,0,kha
0,0,142,70,134,29,0,122,-0.1,0.9,0.38,-1,2,0,kha
0,0,142,70,134,31,0,122,-0.1,0.9,0.38,-1,2,0,kha
0,0,143,71,140,31,0,125,-0.1,0.9,0.38,-1,2,0,kha
0,0,143,71,140,31,0,125,-0.1,0.9,0.38,-1,2,0,kha
0,0,143,71,140,31,0,125,-0.1,0.9,0.38,-1,2,0,kha
0,0,142,70,142,31,0,125,-0.1,0.9,0.38,-2,2,0,kha
0,0,142,70,142,31,0,125,-0.1,0.9,0.38,-2,3,0,kha
0,0,142,70,142,31,0,127,-0.1,0.9,0.38,-2,2,0,kha
0,0,142,70,145,31,0,125,-0.1,0.9,0.38,-2,2,0,kha
0,0,142,70,145,32,0,125,-0.1,0.9,0.38,-2,2,0,kha
0,0,142,70,145,32,0,125,-0.1,0.9,0.38,-3,2,0,kha
0,0,142,70,145,32,0,125,-0.1,0.9,0.38,-2,2,0,kha
0,0,142,70,145,32,0,125,-0.1,0.9,0.38,-2,2,0,kha
0,0,142,70,145,31,0,125,-0.1,0.9,0.39,-2,2,0,kha
0,0,142,71,145,31,0,125,-0.1,0.9,0.39,-2,2,0,kha
0,0,142,71,142,31,0,125,-0.1,0.9,0.39,-2,2,0,kha
0,0,142,71,142,31,0,125,-0.1,0.9,0.39,-2,2,0,kha
0,0,142,71,145,31,0,125,-0.1,0.9,0.39,-2,2,0,kha
0,0,143,71,142,29,0,125,-0.1,0.9,0.39,-2,2,0,kha
0,0,143,71,142,29,0,127,-0.1,0.9,0.39,-1,2,0,kha
0,0,143,71,142,29,0,127,-0.1,0.9,0.39,-1,2,0,kha
0,0,143,71,140,29,0,125,-0.1,0.9,0.39,-1,2,0,kha
0,0,143,71,142,31,0,127,-0.1,0.9,0.38,-1,2,0,kha
0,0,143,71,142,31,0,127,-0.1,0.9,0.38,-1,2,0,kha
0,0,144,71,142,31,0,127,-0.1,0.9,0.39,-1,2,0,kha
0,0,144,71,140,31,0,127,-0.1,0.9,0.38,-1,2,0,kha
0,0,144,72,140,31,0,127,-0.1,0.9,0.38,-1,2,0,kha
0,0,145,72,140,32,0,127,-0.1,0.9,0.38,-1,2,0,kha
0,0,145,72,142,31,0,127,-0.1,0.91,0.38,-1,2,0,kha
0,0,145,72,142,32,0,130,-0.1,0.9,0.38,0,2,0,kha
0,0,145,72,142,31,0,130,-0.1,0.91,0.38,-1,2,0,kha
0,0,145,72,145,31,0,127,-0.1,0.91,0.38,-1,2,0,kha
0,0,146,73,142,32,0,127,-0.1,0.91,0.38,-1,2,0,kha
0,0,146,73,142,31,0,127,-0.1,0.9,0.38,-1,2,0,kha
0,0,146,73,142,32,0,125,-0.1,0.9,0.38,-1,2,0,kha
0,0,146,72,145,32,0,125,-0.1,0.9,0.38,-1,2,0,kha
0,0,147,72,142,32,0,125,-0.1,0.91,0.38,-1,2,0,kha
0,0,146,72,142,32,0,125,-0.1,0.91,0.38,-1,2,0,kha
0,0,146,72,142,32,0,125,-0.1,0.9,0.38,-1,2,0,kha
0,0,146,72,142,32,0,125,-0.1,0.91,0.38,-2,2,0,kha
0,0,147,72,142,34,0,125,-0.09,0.91,0.38,-2,2,0,kha
0,0,147,72,142,34,0,125,-0.09,0.91,0.38,-2,2,0,kha
0,0,147,72,142,34,0,127,-0.09,0.9,0.38,-2,1,0,kha
0,0,147,73,142,32,0,125,-0.09,0.9,0.38,-3,0,0,kha
0,0,147,73,142,32,0,125,-0.09,0.9,0.39,-5,0,0,kha
0,0,148,73,140,32,0,125,-0.08,0.89,0.39,-5,0,0,kha
0,0,148,73,142,31,0,127,-0.08,0.89,0.4,-5,0,0,kha
0,0,149,72,142,31,0,127,-0.08,0.89,0.4,-5,0,0,kha
0,0,150,73,142,31,0,127,-0.08,0.89,0.4,-4,0,0,kha
0,0,151,73,142,29,0,127,-0.08,0.88,0.4,-2,0,0,kha
0,0,151,74,142,29,0,127,-0.08,0.89,0.4,-1,1,2,kha
0,0,151,74,142,29,0,130,-0.09,0.88,0.4,0,2,2,kha
0,0,151,75,142,29,0,130,-0.09,0.89,0.4,3,2,2,kha
0,0,151,76,142,31,0,130,-0.08,0.89,0.4,5,2,2,kha
0,0,150,78,145,31,0,132,-0.08,0.9,0.39,7,2,2,kha
0,0,149,81,145,32,0,132,-0.08,0.9,0.38,7,3,3,kha
0,0,148,84,142,34,0,130,-0.08,0.9,0.37,7,3,3,kha
0,0,147,86,142,37,0,130,-0.07,0.91,0.36,6,4,3,kha
0,0,145,88,142,38,0,130,-0.07,0.91,0.35,4,4,3,kha
0,0,144,91,140,40,0,130,-0.07,0.92,0.35,2,4,3,kha
0,0,144,91,140,41,0,130,-0.06,0.91,0.35,1,3,1,kha
0,0,143,92,140,43,0,130,-0.06,0.92,0.34,0,3,1,kha
0,0,143,93,140,43,0,130,-0.06,0.91,0.34,-3,4,0,kha
0,0,143,93,140,43,0,130,-0.06,0.92,0.34,-5,4,0,kha
0,0,143,92,140,43,0,130,-0.06,0.91,0.35,-6,4,0,kha
0,0,143,91,140,41,0,130,-0.06,0.91,0.35,-5,4,0,kha
0,0,143,90,142,41,0,132,-0.06,0.91,0.35,-5,4,0,kha
0,0,144,90,142,41,0,130,-0.06,0.91,0.36,-4,3,0,kha
0,0,144,89,142,40,0,130,-0.06,0.91,0.36,-3,3,0,kha
0,0,143,88,140,40,0,127,-0.06,0.91,0.36,-3,3,0,kha
0,0,143,88,140,40,0,127,-0.07,0.91,0.36,-2,3,0,kha
0,0,143,88,142,40,0,127,-0.07,0.91,0.36,-2,3,0,kha
0,0,143,87,140,40,0,127,-0.07,0.91,0.37,-1,2,0,kha
0,0,143,87,140,40,0,127,-0.07,0.91,0.36,0,2,0,kha
0,0,143,88,142,40,0,127,-0.07,0.91,0.37,0,2,0,kha
0,0,143,88,140,40,0,127,-0.07,0.91,0.37,0,1,0,kha
0,0,142,88,140,40,0,130,-0.06,0.92,0.36,0,1,0,kha
0,0,142,87,137,40,0,127,-0.06,0.92,0.36,-1,1,0,kha
0,0,142,88,137,40,0,130,-0.06,0.92,0.36,-1,1,0,kha
0,0,142,87,137,40,0,130,-0.06,0.92,0.36,-2,1,0,kha
0,0,142,87,137,40,0,132,-0.06,0.92,0.36,-2,1,0,kha
0,0,142,87,137,40,0,130,-0.06,0.92,0.36,-2,1,0,kha
0,0,142,87,137,40,0,130,-0.06,0.92,0.36,-2,1,-1,kha
0,0,142,87,137,40,0,130,-0.06,0.92,0.36,-2,2,-1,kha
0,0,142,87,137,40,0,130,-0.06,0.92,0.36,-2,2,0,kha
0,0,142,87,137,40,0,127,-0.06,0.92,0.36,-2,3,0,kha
0,0,142,87,137,40,0,127,-0.06,0.92,0.36,-2,3,0,kha
0,0,142,87,140,40,0,127,-0.06,0.92,0.36,-2,4,0,kha
0,0,143,86,140,40,0,127,-0.06,0.92,0.36,-2,4,0,kha
0,0,143,86,137,40,0,125,-0.07,0.92,0.36,-2,3,0,kha
0,0,143,86,137,38,0,125,-0.07,0.92,0.36,-2,4,0,kha
0,0,144,85,137,40,0,122,-0.07,0.92,0.36,-2,4,0,kha
0,0,144,85,137,38,0,125,-0.07,0.92,0.36,-2,4,0,kha
0,0,144,85,137,38,0,125,-0.06,0.92,0.36,-3,5,0,kha
0,0,144,84,137,38,0,125,-0.07,0.92,0.37,-3,5,0,kha
0,0,144,84,137,38,0,125,-0.07,0.92,0.37,-4,4,0,kha
0,0,145,84,137,37,0,122,-0.07,0.91,0.37,-4,3,0,kha
0,0,145,84,137,38,0,122,-0.07,0.91,0.37,-3,3,0,kha
0,0,145,84,140,37,0,122,-0.07,0.91,0.37,-3,4,0,kha
0,0,145,84,140,37,0,122,-0.07,0.91,0.38,-3,4,0,kha
0,0,145,84,142,37,0,125,-0.07,0.91,0.38,-3,4,0,kha
0,0,145,83,140,37,0,127,-0.07,0.91,0.38,-3,3,0,kha
0,0,145,83,140,37,0,125,-0.07,0.91,0.39,-3,3,0,kha
0,0,145,83,140,37,0,125,-0.07,0.91,0.39,-3,2,0,kha
0,0,145,83,140,37,0,125,-0.07,0.91,0.39,-2,2,0,kha
0,0,145,83,142,37,0,125,-0.07,0.91,0.38,-2,2,0,kha
0,0,145,82,142,37,0,125,-0.07,0.91,0.38,-3,2,0,kha
0,0,145,83,142,37,0,125,-0.07,0.91,0.39,-2,2,0,kha
0,0,145,82,142,37,0,125,-0.07,0.9,0.39,-2,2,0,kha
0,0,145,82,142,37,0,125,-0.07,0.9,0.39,-2,2,0,kha
0,0,146,82,142,37,0,125,-0.07,0.9,0.39,-2,2,0,kha
0,0,146,82,142,37,0,125,-0.07,0.9,0.39,-2,2,0,kha
0,0,146,82,142,37,0,122,-0.07,0.9,0.39,-2,2,0,kha
0,0,146,82,148,37,0,127,-0.07,0.9,0.39,-2,2,0,kha
0,0,146,82,145,37,0,125,-0.07,0.9,0.39,-1,2,0,kha
0,0,147,83,145,37,0,125,-0.07,0.9,0.39,-1,2,0,kha
0,0,146,82,142,37,0,125,-0.07,0.9,0.38,0,2,0,kha
0,0,146,82,145,35,0,122,-0.07,0.9,0.38,0,2,0,kha
0,0,145,82,145,37,0,125,-0.07,0.9,0.39,0,2,0,kha
0,0,145,83,142,35,0,122,-0.07,0.91,0.39,-1,2,0,kha
0,0,145,83,145,35,0,125,-0.07,0.91,0.38,0,2,0,kha
0,0,144,83,145,35,0,125,-0.07,0.91,0.38,-1,2,0,kha
0,0,144,83,148,35,0,125,-0.07,0.91,0.38,0,3,0,kha
0,0,144,82,145,35,0,122,-0.07,0.91,0.38,0,2,0,kha
0,0,145,82,145,35,0,122,-0.07,0.91,0.38,-1,3,0,kha
0,0,144,82,145,35,0,122,-0.07,0.91,0.38,-1,2,0,kha
0,0,145,82,148,35,0,122,-0.07,0.91,0.38,-1,2,0,kha
0,0,145,82,145,35,0,122,-0.07,0.91,0.38,-1,2,0,kha
0,0,145,82,145,35,0,122,-0.07,0.91,0.38,-1,2,0,kha
0,0,145,82,142,35,0,122,-0.07,0.91,0.38,-1,2,0,kha
0,0,145,82,142,35,0,122,-0.07,0.91,0.38,-1,2,0,kha
0,0,146,82,142,35,0,122,-0.07,0.91,0.38,-1,2,0,kha
0,0,146,82,142,37,0,122,-0.07,0.91,0.38,-1,2,0,kha
0,0,146,82,140,37,0,122,-0.07,0.91,0.38,-1,2,0,kha
0,0,145,82,140,37,0,122,-0.07,0.91,0.38,-1,2,0,kha
0,0,145,82,140,37,0,122,-0.07,0.91,0.38,0,2,0,kha
0,0,145,81,137,37,0,122,-0.07,0.91,0.38,0,2,0,kha
0,0,145,81,137,37,0,122,-0.07,0.91,0.38,-1,2,0,kha
0,0,145,81,137,37,0,122,-0.07,0.91,0.38,-1,2,0,kha
0,0,145,81,140,37,0,120,-0.07,0.91,0.38,-1,2,0,kha
0,0,144,81,137,35,0,120,-0.06,0.91,0.38,0,2,0,kha
0,0,144,81,137,35,0,120,-0.06,0.91,0.37,-1,2,0,kha
0,0,144,82,134,35,0,118,-0.06,0.91,0.38,-1,2,0,kha
0,0,144,82,137,35,0,120,-0.06,0.91,0.37,-1,2,0,kha
0,0,144,82,137,35,0,120,-0.06,0.91,0.37,-1,2,0,kha
0,0,145,82,137,35,0,118,-0.06,0.91,0.37,-1,2,0,kha
0,0,145,82,137,35,0,118,-0.06,0.91,0.37,-2,2,0,kha
0,0,144,82,137,37,0,120,-0.06,0.91,0.37,-2,2,0,kha
0,0,145,82,140,37,0,120,-0.06,0.91,0.38,-2,2,0,kha
0,0,144,82,140,37,0,122,-0.06,0.91,0.37,-1,2,0,kha
0,0,145,82,140,37,0,122,-0.07,0.91,0.38,-1,2,0,kha
0,0,145,82,142,37,0,122,-0.06,0.91,0.38,-1,2,0,kha
0,0,145,81,142,37,0,122,-0.06,0.91,0.38,-1,2,0,kha
0,0,145,81,142,37,0,122,-0.07,0.91,0.38,-1,2,0,kha
0,0,145,81,142,37,0,122,-0.07,0.91,0.37,-1,2,0,kha
0,0,145,82,142,35,0,122,-0.07,0.91,0.38,-1,2,0,kha
0,0,145,81,142,35,0,125,-0.07,0.91,0.38,0,2,0,kha
0,0,145,81,145,35,0,122,-0.07,0.91,0.38,0,2,0,kha
0,0,145,81,145,35,0,122,-0.06,0.91,0.38,0,2,0,kha
0,0,144,81,145,35,0,122,-0.07,0.91,0.37,0,2,0,kha
0,0,144,81,142,35,0,122,-0.07,0.91,0.38,0,2,0,kha
0,0,143,81,142,35,0,122,-0.07,0.91,0.37,0,2,0,kha
0,0,144,80,142,35,0,122,-0.07,0.91,0.38,0,2,0,kha
0,0,144,81,142,35,0,122,-0.06,0.91,0.38,0,2,0,kha
0,0,143,81,140,35,0,122,-0.06,0.91,0.38,0,2,0,kha
0,0,144,80,140,35,0,122,-0.06,0.91,0.37,0,2,0,kha
0,0,143,80,137,35,0,122,-0.06,0.91,0.38,0,2,0,kha
0,0,143,80,137,35,0,120,-0.06,0.91,0.37,0,2,0,kha
0,0,143,80,137,35,0,120,-0.06,0.91,0.37,0,2,0,kha
0,0,143,80,140,35,0,122,-0.06,0.91,0.37,0,2,0,kha
0,0,143,81,140,35,0,122,-0.06,0.91,0.37,-1,2,0,kha
0,0,143,80,140,34,0,120,-0.06,0.91,0.37,-1,2,0,kha
0,0,143,80,140,34,0,122,-0.06,0.91,0.37,0,2,0,kha
0,0,142,80,140,32,0,122,-0.06,0.91,0.37,-1,2,0,kha
0,0,142,80,140,32,0,122,-0.06,0.91,0.37,0,1,0,kha
0,0,142,80,140,32,0,122,-0.06,0.91,0.37,-1,1,0,kha
0,0,143,80,140,32,0,122,-0.06,0.91,0.36,-1,2,0,kha
0,0,142,79,140,34,0,122,-0.06,0.91,0.36,-2,2,0,kha
0,0,142,79,140,34,0,122,-0.06,0.91,0.36,-1,2,0,kha
0,0,142,79,140,34,0,125,-0.06,0.91,0.37,-2,2,0,kha
0,0,142,79,137,34,0,122,-0.06,0.91,0.37,-1,2,0,kha
0,0,142,79,137,34,0,125,-0.06,0.91,0.37,-1,2,0,kha
0,0,142,79,137,35,0,122,-0.06,0.91,0.37,-2,2,0,kha
0,0,143,78,134,35,0,122,-0.06,0.91,0.37,-1,1,0,kha
0,0,143,78,137,37,0,122,-0.06,0.91,0.37,-1,2,0,kha
0,0,143,79,137,35,0,122,-0.06,0.91,0.37,-1,2,0,kha
0,0,142,79,137,35,0,122,-0.06,0.91,0.37,-1,2,0,kha
0,0,143,80,137,35,0,122,-0.06,0.91,0.36,-1,2,0,kha
0,0,143,80,137,35,0,122,-0.06,0.91,0.37,0,2,0,kha
0,0,143,79,137,35,0,122,-0.06,0.91,0.36,-1,2,0,kha
0,0,143,79,137,35,0,122,-0.06,0.91,0.36,-1,2,0,kha
0,0,144,80,137,35,0,122,-0.05,0.92,0.36,-1,1,0,kha
0,0,143,80,137,35,0,122,-0.05,0.91,0.36,-1,1,0,kha
0,0,143,80,137,34,0,122,-0.05,0.92,0.36,-1,2,0,kha
0,0,143,80,134,34,0,122,-0.05,0.91,0.36,-1,2,0,kha
0,0,143,80,137,34,0,122,-0.05,0.91,0.36,-1,2,0,kha
0,0,143,80,137,34,0,122,-0.05,0.92,0.36,-2,2,0,kha
0,0,144,80,137,34,0,122,-0.05,0.92,0.36,-2,1,0,kha
0,0,144,80,137,32,0,120,-0.05,0.92,0.36,-2,1,0,kha
0,0,144,80,137,32,0,120,-0.05,0.92,0.36,-2,1,0,kha
0,0,143,80,134,32,0,120,-0.05,0.92,0.36,-2,1,0,kha
0,0,143,80,134,32,0,120,-0.05,0.92,0.36,-1,2,0,kha
0,0,142,80,137,34,0,120,-0.05,0.92,0.36,-2,2,0,kha
0,0,143,80,137,34,0,120,-0.05,0.92,0.36,-2,1,0,kha
0,0,143,80,137,32,0,122,-0.05,0.92,0.36,-2,2,0,kha
0,0,143,80,134,32,0,122,-0.05,0.92,0.36,-2,2,0,kha
0,0,143,79,137,32,0,122,-0.05,0.92,0.36,-2,2,0,kha
0,0,142,78,137,32,0,122,-0.05,0.92,0.36,-2,2,0,kha
0,0,142,78,137,32,0,120,-0.05,0.91,0.36,-2,2,0,kha
0,0,142,78,137,32,0,120,-0.05,0.91,0.37,-2,2,0,kha
0,0,143,78,140,32,0,120,-0.05,0.91,0.36,-2,2,0,kha
0,0,143,78,140,32,0,122,-0.05,0.91,0.37,-2,2,0,kha
0,0,143,77,137,32,0,122,-0.05,0.91,0.37,-2,2,0,kha
0,0,143,77,137,32,0,120,-0.05,0.91,0.37,-2,2,0,kha
0,0,143,77,140,32,0,120,-0.05,0.91,0.37,-2,2,0,kha
0,0,143,77,137,32,0,120,-0.05,0.91,0.37,-2,2,0,kha
0,0,143,77,140,34,0,120,-0.05,0.91,0.37,-2,2,0,kha
0,0,143,77,137,34,0,120,-0.05,0.91,0.37,-2,2,0,kha
0,0,143,77,137,34,0,122,-0.05,0.91,0.37,-1,2,0,kha
0,0,143,77,137,34,0,122,-0.05,0.91,0.37,-2,2,0,kha
0,0,143,77,137,34,0,120,-0.05,0.91,0.37,-2,2,0,kha
0,0,143,77,137,34,0,120,-0.05,0.91,0.37,-2,2,0,kha
0,0,143,77,137,35,0,120,-0.05,0.91,0.37,-2,2,0,kha
0,0,143,77,137,35,0,120,-0.05,0.91,0.37,-2,2,0,kha
0,0,143,77,137,35,0,118,-0.05,0.91,0.37,-2,2,0,kha
0,0,143,78,137,35,0,118,-0.04,0.92,0.37,-1,2,0,kha
0,0,143,78,137,35,0,118,-0.04,0.92,0.37,-1,2,0,kha
0,0,143,78,134,34,0,118,-0.04,0.92,0.37,-1,2,0,kha
0,0,143,78,137,35,0,118,-0.04,0.92,0.37,-2,2,0,kha
0,0,143,79,137,35,0,118,-0.04,0.92,0.37,-1,2,0,kha
0,0,143,78,137,35,0,118,-0.04,0.92,0.37,-1,2,0,kha
0,0,143,78,137,35,0,118,-0.04,0.91,0.37,-1,2,0,kha
0,0,143,78,137,35,0,120,-0.04,0.92,0.37,-1,2,0,kha
0,0,143,79,137,35,0,120,-0.04,0.92,0.37,-1,2,0,kha
0,0,143,78,134,35,0,120,-0.04,0.92,0.36,-1,2,0,kha
0,0,143,78,137,35,0,120,-0.05,0.92,0.37,-2,2,0,kha
0,0,143,79,137,35,0,120,-0.05,0.92,0.37,-1,2,0,kha
0,0,144,78,140,35,0,120,-0.05,0.92,0.37,-1,2,0,kha
0,0,144,79,140,35,0,120,-0.05,0.92,0.37,-1,2,0,kha
0,0,144,78,142,35,0,118,-0.05,0.92,0.37,-1,2,0,kha
0,0,144,78,142,34,0,118,-0.05,0.92,0.37,-1,2,0,kha
0,0,143,78,140,34,0,118,-0.05,0.92,0.37,-1,2,0,kha
0,0,143,77,140,34,0,115,-0.05,0.92,0.37,-1,2,0,kha
0,0,143,77,142,34,0,115,-0.05,0.92,0.37,0,2,0,kha
0,0,143,77,142,34,0,118,-0.05,0.92,0.36,0,2,0,kha
0,0,143,76,142,34,0,118,-0.05,0.92,0.36,1,3,0,kha
0,0,143,76,142,32,0,118,-0.05,0.92,0.36,1,3,0,kha
0,0,142,76,140,34,0,118,-0.05,0.92,0.36,1,3,0,kha
0,0,142,75,140,34,0,120,-0.04,0.92,0.35,1,3,1,kha
0,0,143,76,137,32,0,120,-0.04,0.92,0.35,1,3,1,kha
0,0,143,76,137,34,0,120,-0.04,0.92,0.34,1,3,0,kha
0,0,144,76,137,34,0,120,-0.04,0.92,0.34,1,3,0,kha
0,0,144,76,137,32,0,120,-0.04,0.92,0.34,1,2,0,kha
0,0,144,76,137,32,0,120,-0.04,0.92,0.34,1,2,0,kha
0,0,144,77,137,32,0,120,-0.04,0.92,0.33,0,1,0,kha
0,0,144,77,137,34,0,122,-0.03,0.92,0.33,0,0,0,kha
0,0,144,78,137,34,0,122,-0.04,0.92,0.33,0,-1,-2,kha
0,0,144,78,140,34,0,122,-0.04,0.92,0.32,0,-2,-3,kha
0,0,144,77,140,34,0,122,-0.04,0.92,0.32,0,-1,-3,kha
0,0,144,77,140,35,0,120,-0.04,0.93,0.33,0,-1,-4,kha
0,0,143,77,142,35,0,122,-0.04,0.93,0.33,-1,0,-4,kha
0,0,143,78,142,35,0,122,-0.05,0.93,0.33,-1,0,-3,kha
0,0,142,77,142,35,0,122,-0.05,0.92,0.33,-1,0,-3,kha
0,0,143,78,142,37,0,122,-0.05,0.93,0.33,-1,1,-3,kha
0,0,142,77,142,35,0,122,-0.05,0.92,0.33,0,2,-3,kha
0,0,142,77,140,35,0,120,-0.06,0.93,0.33,0,2,-3,kha
0,0,142,76,140,35,0,120,-0.06,0.93,0.33,-1,3,-2,kha
0,0,142,77,140,35,0,120,-0.06,0.93,0.33,-2,3,-2,kha
0,0,143,78,140,35,0,120,-0.06,0.93,0.33,-1,3,-1,kha
0,0,143,77,140,35,0,120,-0.06,0.93,0.33,-1,3,-1,kha
0,0,143,78,140,35,0,120,-0.06,0.92,0.33,-2,3,-1,kha
0,0,143,78,137,35,0,120,-0.06,0.93,0.33,-2,3,-1,kha
0,0,143,78,140,35,0,118,-0.06,0.93,0.33,-2,3,-1,kha
0,0,143,77,140,35,0,118,-0.06,0.93,0.33,-2,2,-1,kha
0,0,143,77,137,35,0,118,-0.06,0.93,0.33,-2,2,-1,kha
0,0,143,77,140,35,0,120,-0.06,0.93,0.33,-2,2,0,kha
0,0,143,78,142,35,0,120,-0.06,0.92,0.33,-2,2,0,kha
0,0,143,78,140,35,0,120,-0.06,0.93,0.33,-1,2,-1,kha
0,0,142,77,137,34,0,120,-0.06,0.93,0.32,-1,2,-1,kha
0,0,142,76,137,34,0,120,-0.06,0.93,0.33,-2,2,-1,kha
0,0,142,76,134,34,0,120,-0.06,0.93,0.33,-1,2,-1,kha
0,0,142,76,137,32,0,120,-0.06,0.93,0.33,-2,2,0,kha
0,0,142,76,137,32,0,120,-0.07,0.93,0.33,-2,2,0,kha
0,0,142,77,137,32,0,120,-0.06,0.93,0.33,-1,2,0,kha
0,0,141,76,134,32,0,118,-0.07,0.93,0.33,-1,3,0,kha
0,0,141,76,134,32,0,118,-0.07,0.93,0.33,-1,3,0,kha
0,0,141,76,131,32,0,118,-0.07,0.93,0.33,-1,3,0,kha
0,0,141,76,134,32,0,118,-0.06,0.93,0.33,0,3,0,kha
0,0,141,76,134,32,0,118,-0.07,0.93,0.33,0,3,0,kha
0,0,141,77,134,34,0,118,-0.06,0.93,0.32,0,3,0,kha
0,0,141,77,137,34,0,118,-0.07,0.93,0.32,0,3,0,kha
0,0,141,76,137,34,0,118,-0.07,0.93,0.32,0,3,0,kha
0,0,142,76,137,34,0,120,-0.07,0.93,0.32,-1,3,0,kha
0,0,142,76,134,34,0,120,-0.07,0.93,0.32,-2,3,0,kha
0,0,143,76,134,34,0,120,-0.07,0.93,0.32,-2,2,0,kha
0,0,143,76,134,34,0,120,-0.07,0.93,0.32,-2,2,0,kha
0,0,144,76,134,32,0,120,-0.07,0.93,0.32,-2,2,0,kha
0,0,145,77,134,32,0,120,-0.07,0.93,0.32,-3,2,0,kha
0,0,144,77,137,32,0,120,-0.07,0.93,0.32,-3,2,0,kha
0,0,144,77,137,32,0,120,-0.06,0.93,0.32,-3,2,0,kha
0,0,145,77,137,32,0,118,-0.06,0.93,0.32,-3,1,0,kha
0,0,145,77,134,34,0,118,-0.06,0.93,0.32,-3,2,0,kha
0,0,144,77,134,34,0,118,-0.06,0.93,0.32,-3,2,0,kha
0,0,144,77,137,34,0,118,-0.06,0.93,0.32,-2,2,0,kha
0,0,144,78,137,34,0,118,-0.06,0.93,0.33,-2,2,-1,kha
0,0,144,78,137,34,0,118,-0.06,0.93,0.33,-2,3,-1,kha
0,0,143,78,137,34,0,118,-0.06,0.93,0.33,-2,3,-1,kha
0,0,144,77,134,34,0,118,-0.06,0.93,0.33,-2,3,-1,kha
0,0,144,77,134,34,0,118,-0.06,0.93,0.33,-2,3,-1,kha
0,0,144,77,134,35,0,120,-0.06,0.93,0.33,0,3,0,kha
0,0,144,77,137,35,0,120,-0.06,0.93,0.33,0,3,0,kha
0,0,144,77,137,34,0,120,-0.07,0.93,0.33,0,3,0,kha
0,0,144,77,137,34,0,120,-0.07,0.93,0.33,0,3,0,kha
0,0,144,77,137,34,0,120,-0.07,0.93,0.33,1,2,1,kha
0,0,144,77,137,34,0,120,-0.06,0.93,0.32,1,2,1,kha
0,0,144,77,134,32,0,118,-0.06,0.93,0.32,1,3,1,kha
0,0,144,77,137,32,0,118,-0.06,0.94,0.32,1,2,1,kha
0,0,143,77,137,32,0,120,-0.06,0.94,0.31,2,2,2,kha
0,0,143,77,137,32,0,120,-0.05,0.94,0.31,2,2,2,kha
0,0,143,77,137,31,0,118,-0.05,0.94,0.3,1,1,2,kha
0,0,143,78,137,31,0,120,-0.05,0.94,0.31,1,2,3,kha
0,0,144,78,134,31,0,120,-0.04,0.94,0.3,2,1,3,kha
0,0,144,78,134,31,0,118,-0.04,0.94,0.3,2,1,3,kha
0,0,144,77,131,31,0,118,-0.03,0.94,0.3,2,1,3,kha
0,0,144,77,134,31,0,120,-0.03,0.94,0.29,2,1,2,kha
0,0,144,77,134,31,0,118,-0.03,0.94,0.29,2,0,2,kha
0,0,144,76,134,31,0,118,-0.02,0.94,0.28,1,1,2,kha
0,0,144,76,134,31,0,118,-0.02,0.94,0.28,1,3,1,kha
0,0,144,76,131,31,0,118,-0.02,0.94,0.27,1,2,0,kha
0,0,144,76,134,32,0,120,-0.02,0.95,0.27,1,3,0,kha
0,0,144,76,134,32,0,118,-0.02,0.95,0.26,1,3,0,kha
0,0,143,76,134,31,0,118,-0.02,0.95,0.26,0,4,0,kha
0,0,143,77,134,32,0,118,-0.02,0.95,0.26,0,4,-1,kha
0,0,143,77,131,31,0,118,-0.02,0.95,0.26,0,4,-1,kha
0,0,143,77,131,32,0,118,-0.02,0.95,0.26,0,5,-1,kha
0,0,143,77,131,32,0,120,-0.02,0.95,0.26,0,5,-1,kha
0,0,143,78,131,32,0,120,-0.03,0.94,0.26,0,4,-1,kha
0,0,143,78,128,32,0,120,-0.03,0.94,0.26,-1,3,-1,kha
0,0,143,78,131,32,0,120,-0.03,0.95,0.27,-1,3,-1,kha
0,0,143,77,128,32,0,120,-0.03,0.95,0.27,-2,2,-1,kha
0,0,143,77,131,32,0,120,-0.03,0.95,0.27,-2,2,0,kha
0,0,143,77,131,32,0,120,-0.03,0.95,0.27,-1,2,0,kha
0,0,142,77,131,32,0,120,-0.03,0.94,0.27,-1,2,0,kha
0,0,142,76,131,32,0,120,-0.03,0.94,0.27,-1,2,0,kha
0,0,142,76,134,32,0,120,-0.03,0.95,0.27,-1,2,0,kha
0,0,142,76,134,32,0,118,-0.03,0.95,0.27,-1,2,-1,kha
0,0,142,76,134,32,0,118,-0.03,0.95,0.27,0,2,-1,kha
0,0,142,75,134,32,0,120,-0.03,0.95,0.27,0,2,0,kha
0,0,141,75,131,31,0,118,-0.03,0.95,0.26,-1,2,0,kha
0,0,142,75,131,31,0,118,-0.03,0.95,0.26,-1,2,0,kha
0,0,142,75,131,31,0,118,-0.03,0.95,0.26,-1,2,0,kha
0,0,142,75,131,31,0,118,-0.03,0.95,0.26,-1,2,0,kha
0,0,142,76,131,31,0,118,-0.04,0.95,0.26,-1,2,0,kha
0,0,142,75,126,29,0,118,-0.04,0.95,0.26,-1,2,0,kha
0,0,142,76,126,29,0,120,-0.04,0.95,0.26,-1,2,0,kha
0,0,142,76,126,29,0,120,-0.04,0.95,0.26,-2,2,0,kha
0,0,143,76,128,29,0,120,-0.03,0.95,0.26,-2,2,0,kha
0,0,143,76,128,29,0,120,-0.03,0.95,0.26,-2,2,0,kha
0,0,143,76,128,31,0,120,-0.03,0.95,0.26,-1,2,0,kha
0,0,143,76,128,31,0,120,-0.03,0.95,0.26,-1,2,0,kha
0,0,143,75,128,31,0,120,-0.03,0.95,0.26,0,2,0,kha
0,0,143,75,126,31,0,120,-0.03,0.95,0.26,0,2,0,kha
0,0,142,75,128,31,0,120,-0.03,0.95,0.26,0,2,0,kha
0,0,142,75,131,31,0,120,-0.03,0.95,0.26,0,2,0,kha
0,0,142,75,131,32,0,120,-0.03,0.95,0.25,0,2,0,kha
0,0,142,75,134,32,0,118,-0.03,0.95,0.25,0,3,-1,kha
0,0,142,75,134,32,0,118,-0.03,0.95,0.25,-1,3,-1,kha
0,0,142,75,134,34,0,120,-0.03,0.95,0.25,0,3,-1,kha
0,0,142,75,134,32,0,120,-0.03,0.95,0.25,0,3,-1,kha
0,0,142,76,134,32,0,118,-0.03,0.95,0.25,0,3,-1,kha
0,0,142,76,134,32,0,120,-0.04,0.95,0.25,-1,2,-1,kha
0,0,142,76,134,34,0,120,-0.03,0.95,0.25,-2,2,-2,kha
0,0,142,76,131,34,0,120,-0.04,0.95,0.25,-2,2,-2,kha
0,0,143,76,131,34,0,120,-0.04,0.95,0.25,-2,1,-2,kha
0,0,143,76,131,34,0,120,-0.04,0.95,0.25,-2,2,-2,kha
0,0,142,76,128,34,0,120,-0.04,0.95,0.25,-2,1,-2,kha
0,0,143,76,128,34,0,120,-0.04,0.95,0.26,-2,1,-1,kha
0,0,142,76,128,34,0,120,-0.04,0.95,0.26,-2,1,-1,kha
0,0,143,76,128,34,0,120,-0.04,0.95,0.26,-3,1,-1,kha
0,0,142,76,128,34,0,118,-0.05,0.95,0.26,-3,1,-1,kha
0,0,142,76,131,34,0,118,-0.05,0.95,0.26,-4,1,-1,kha
0,0,142,76,131,34,0,118,-0.05,0.95,0.26,-4,1,0,kha
0,0,143,75,131,32,0,118,-0.04,0.95,0.26,-4,1,0,kha
0,0,143,76,134,32,0,118,-0.04,0.95,0.26,-4,1,0,kha
0,0,142,76,134,32,0,118,-0.04,0.95,0.26,-4,1,0,kha
0,0,143,76,134,32,0,118,-0.04,0.95,0.26,-4,1,0,kha
0,0,143,76,134,31,0,118,-0.03,0.95,0.27,-4,2,0,kha
0,0,143,76,131,31,0,118,-0.03,0.95,0.27,-4,2,0,kha
0,0,143,76,131,31,0,118,-0.03,0.95,0.27,-5,2,-1,kha
0,0,143,75,131,31,0,120,-0.04,0.95,0.28,-6,0,-1,kha
0,0,143,75,134,32,0,118,-0.03,0.94,0.28,-6,-4,-1,kha
0,0,143,75,134,32,0,118,-0.03,0.94,0.29,-7,-5,-2,kha
0,0,143,76,134,32,0,118,-0.04,0.94,0.29,-7,-6,-2,kha
0,0,143,75,134,31,0,118,-0.04,0.94,0.3,-9,-10,-2,kha
0,0,143,75,131,32,0,118,-0.03,0.94,0.31,-9,-14,-1,kha
0,0,143,75,131,32,0,118,-0.03,0.94,0.32,-9,-17,0,kha
0,0,143,74,131,32,0,118,-0.02,0.93,0.33,-9,-18,0,kha
0,0,143,75,134,31,0,118,-0.01,0.93,0.34,-9,-18,1,kha
0,0,142,75,137,31,0,118,0,0.93,0.34,-8,-19,1,kha
0,0,142,75,134,31,0,118,0.01,0.93,0.35,-6,-16,2,kha
0,0,142,75,134,31,0,118,0.02,0.93,0.35,-6,-13,2,kha
0,0,142,76,134,31,0,118,0.03,0.92,0.36,-4,-11,2,kha
0,0,142,75,131,31,0,118,0.04,0.92,0.36,-3,-8,3,kha
0,0,142,76,134,32,0,118,0.05,0.91,0.37,-1,-2,2,kha
0,0,143,76,134,31,0,118,0.05,0.91,0.37,0,4,2,kha
0,0,143,76,134,32,0,118,0.05,0.92,0.36,0,7,2,kha
0,0,142,76,134,32,0,118,0.04,0.92,0.36,0,10,3,kha
0,0,142,76,134,34,0,118,0.05,0.92,0.36,-2,9,3,kha
0,0,143,76,134,32,0,120,0.04,0.92,0.36,-2,14,2,kha
0,0,143,76,134,32,0,120,0.04,0.92,0.36,-2,14,2,kha
0,0,143,77,137,32,0,118,0.03,0.91,0.36,-2,15,2,kha
0,0,143,77,137,32,0,118,0.03,0.91,0.36,-3,15,2,kha
0,0,143,77,137,32,0,118,0.03,0.92,0.36,-3,13,2,kha
0,0,143,77,134,32,0,118,0.03,0.92,0.37,-3,11,2,kha
0,0,143,76,137,32,0,118,0.03,0.91,0.36,-6,9,2,kha
0,0,143,77,137,32,0,120,0.03,0.91,0.37,-5,8,1,kha
0,0,143,77,134,31,0,120,0.03,0.91,0.37,-4,6,0,kha
0,0,143,77,134,31,0,118,0.03,0.9,0.38,-3,7,0,kha
0,0,144,76,134,31,0,118,0.03,0.91,0.38,-3,3,0,kha
0,0,144,76,134,31,0,118,0.03,0.9,0.38,-3,3,0,kha
0,0,143,76,131,31,0,120,0.04,0.91,0.38,-3,1,0,kha
0,0,143,75,131,32,0,120,0.04,0.91,0.39,-3,1,0,kha
0,0,143,75,131,32,0,120,0.03,0.91,0.39,-3,1,0,kha
0,0,143,75,131,32,0,120,0.03,0.9,0.39,-3,2,0,kha
0,0,143,75,128,31,0,120,0.03,0.91,0.39,-2,2,0,kha
0,0,143,74,128,31,0,120,0.03,0.91,0.39,-2,2,0,kha
0,0,143,74,128,32,0,120,0.03,0.91,0.39,-2,2,0,kha
0,0,143,74,128,32,0,120,0.03,0.9,0.39,-2,2,0,kha
0,0,143,74,131,32,0,120,0.03,0.9,0.4,-2,2,0,kha
0,0,143,73,131,32,0,120,0.03,0.9,0.4,-2,2,-1,kha
0,0,143,73,131,34,0,120,0.03,0.9,0.4,-1,2,-1,kha
0,0,143,74,131,32,0,120,0.03,0.9,0.39,-1,2,-1,kha
0,0,143,74,131,32,0,120,0.03,0.91,0.39,0,2,-1,kha
0,0,142,74,131,32,0,120,0.03,0.91,0.39,0,2,-2,kha
0,0,143,74,134,32,0,120,0.03,0.91,0.39,0,2,-2,kha
94,0,177,70,411,140,36,359,-0.29,0.9,0.28,-3,2,1,ga
94,0,175,67,389,129,36,337,-0.29,0.9,0.28,-2,2,1,ga
94,0,173,64,361,119,33,310,-0.28,0.9,0.28,-3,2,1,ga
94,0,171,60,336,107,36,291,-0.28,0.9,0.28,-3,3,1,ga
94,0,169,57,310,97,36,269,-0.28,0.9,0.28,-3,3,1,ga
94,0,166,54,282,83,36,245,-0.28,0.89,0.28,-3,3,1,ga
94,0,164,50,254,71,33,221,-0.28,0.89,0.28,-3,3,2,ga
94,0,161,47,226,58,36,197,-0.27,0.89,0.28,-3,4,2,ga
94,0,159,44,201,44,36,173,-0.27,0.89,0.28,-4,4,2,ga
92,0,156,42,176,34,36,151,-0.27,0.89,0.28,-4,4,2,ga
92,0,156,42,173,32,36,151,-0.27,0.89,0.28,-5,5,2,ga
89,0,156,42,173,32,36,151,-0.26,0.89,0.29,-5,4,3,ga
89,0,155,42,173,32,38,151,-0.26,0.89,0.29,-4,4,3,ga
89,0,155,41,170,31,36,149,-0.27,0.89,0.29,-4,4,3,ga
89,0,156,41,170,31,36,149,-0.27,0.89,0.29,-3,3,3,ga
89,0,156,41,170,31,36,149,-0.26,0.88,0.29,-3,3,2,ga
87,0,156,41,170,31,36,149,-0.26,0.89,0.3,-3,3,1,ga
87,0,156,41,168,31,33,149,-0.26,0.9,0.3,-3,1,1,ga
87,0,157,41,168,31,33,149,-0.26,0.9,0.3,-2,1,1,ga
87,0,157,40,168,31,33,149,-0.26,0.9,0.3,-1,0,1,ga
87,0,157,40,165,31,33,149,-0.26,0.89,0.3,0,0,1,ga
89,0,158,40,165,31,31,149,-0.25,0.89,0.29,0,0,1,ga
89,0,157,40,162,31,31,149,-0.25,0.9,0.3,-1,1,0,ga
87,0,157,40,165,31,31,149,-0.25,0.9,0.3,-1,1,0,ga
87,0,157,41,165,31,31,151,-0.25,0.91,0.3,-2,2,0,ga
87,0,157,41,168,31,31,151,-0.25,0.91,0.3,-2,2,0,ga
87,0,156,41,165,31,31,151,-0.25,0.9,0.3,-2,2,0,ga
87,0,156,41,162,31,31,151,-0.25,0.9,0.3,-2,2,0,ga
87,0,156,41,162,31,31,151,-0.25,0.9,0.29,-2,2,0,ga
85,0,156,41,162,31,31,151,-0.25,0.9,0.3,-2,3,0,ga
85,0,155,42,165,31,31,154,-0.24,0.9,0.3,-2,3,0,ga
85,0,155,42,165,31,31,154,-0.25,0.9,0.3,-2,3,0,ga
85,0,156,42,165,29,33,154,-0.25,0.89,0.3,-2,2,0,ga
85,0,156,43,165,29,33,154,-0.24,0.89,0.29,-3,2,0,ga
85,0,156,43,165,29,31,154,-0.25,0.89,0.29,-2,2,0,ga
85,0,156,44,165,29,29,154,-0.25,0.9,0.29,-3,3,0,ga
87,0,156,44,168,29,29,154,-0.25,0.89,0.29,-2,3,0,ga
87,0,156,44,168,31,31,151,-0.25,0.89,0.29,-3,3,0,ga
87,0,156,44,170,29,31,151,-0.25,0.89,0.3,-3,3,0,ga
89,0,156,45,168,29,31,151,-0.25,0.89,0.3,-3,3,0,ga
89,0,156,45,168,29,31,151,-0.25,0.9,0.3,-3,3,0,ga
92,0,156,45,168,31,33,151,-0.25,0.9,0.3,-3,3,0,ga
92,0,155,45,168,31,33,151,-0.25,0.9,0.3,-3,3,-1,ga
92,0,155,44,165,31,31,151,-0.25,0.9,0.3,-2,3,0,ga
92,0,155,45,165,31,33,151,-0.25,0.9,0.31,-3,3,0,ga
94,0,155,45,162,31,36,151,-0.25,0.89,0.31,-3,3,0,ga
92,0,155,45,162,31,38,151,-0.25,0.9,0.31,-3,3,-1,ga
92,0,155,45,162,31,38,151,-0.25,0.9,0.31,-2,3,0,ga
92,0,154,46,162,29,38,151,-0.25,0.9,0.31,-3,3,0,ga
89,0,154,45,162,29,38,151,-0.26,0.9,0.31,-3,3,0,ga
89,0,155,46,162,29,36,149,-0.26,0.89,0.31,-3,2,-1,ga
87,0,154,45,162,28,33,149,-0.26,0.89,0.31,-3,3,-1,ga
87,0,154,45,159,28,33,151,-0.26,0.89,0.31,-2,2,-1,ga
87,0,154,46,162,28,36,151,-0.26,0.89,0.31,-3,2,-1,ga
87,0,154,46,162,28,33,151,-0.26,0.89,0.32,-2,2,-1,ga
87,0,154,45,159,28,33,151,-0.26,0.89,0.31,-3,2,-1,ga
87,0,155,45,159,28,31,151,-0.26,0.89,0.31,-3,2,-1,ga
87,0,154,45,159,28,31,151,-0.26,0.89,0.32,-3,1,-1,ga
87,0,154,44,159,28,33,154,-0.26,0.89,0.32,-2,2,0,ga
89,0,154,45,159,28,33,154,-0.26,0.89,0.32,-2,1,0,ga
87,0,154,45,159,28,33,154,-0.26,0.89,0.32,-2,1,0,ga
87,0,154,45,162,28,36,154,-0.26,0.89,0.32,-2,1,0,ga
89,0,154,45,162,28,36,154,-0.26,0.89,0.32,-2,2,0,ga
87,0,154,45,159,28,36,154,-0.26,0.89,0.32,-2,2,0,ga
87,0,154,44,162,28,36,154,-0.26,0.89,0.32,-2,2,0,ga
87,0,154,44,168,28,36,154,-0.25,0.89,0.32,0,2,0,ga
87,0,154,44,168,28,36,154,-0.25,0.89,0.33,-1,2,0,ga
87,0,154,44,170,28,38,151,-0.26,0.89,0.32,0,2,0,ga
87,0,154,44,170,28,36,151,-0.25,0.89,0.32,-1,2,0,ga
85,0,154,43,170,28,36,151,-0.25,0.88,0.32,-1,2,0,ga
87,0,154,43,168,28,38,149,-0.26,0.89,0.32,0,2,0,ga
87,0,154,42,165,28,36,149,-0.25,0.89,0.32,0,2,0,ga
87,0,155,43,165,28,36,149,-0.25,0.88,0.32,0,2,0,ga
89,0,155,42,168,28,36,149,-0.25,0.89,0.32,-1,2,0,ga
89,0,154,42,165,28,33,149,-0.25,0.88,0.32,0,2,0,ga
89,0,154,42,159,28,33,149,-0.26,0.89,0.32,-2,1,0,ga
92,0,154,42,156,28,33,149,-0.25,0.88,0.32,-1,2,0,ga
94,0,155,42,159,28,33,149,-0.25,0.89,0.32,-2,1,0,ga
94,0,154,42,159,28,33,149,-0.25,0.89,0.32,-2,1,0,ga
96,0,155,42,159,28,33,149,-0.25,0.89,0.32,-2,2,0,ga
96,0,154,42,162,28,29,149,-0.25,0.89,0.32,-2,1,0,ga
94,0,154,42,162,28,31,149,-0.25,0.89,0.32,-2,2,0,ga
92,0,154,41,162,28,31,149,-0.25,0.89,0.32,-2,1,0,ga
92,0,154,42,162,28,29,149,-0.26,0.89,0.32,-2,2,0,ga
92,0,154,42,162,28,31,149,-0.26,0.89,0.32,-3,2,0,ga
92,0,154,41,162,28,31,149,-0.26,0.89,0.33,-2,2,0,ga
89,0,154,42,165,28,29,149,-0.26,0.89,0.33,-2,2,0,ga
87,0,154,41,162,26,29,149,-0.26,0.89,0.33,-2,2,0,ga
87,0,154,42,162,26,31,149,-0.26,0.89,0.33,-2,2,0,ga
87,0,154,42,162,26,29,149,-0.26,0.89,0.33,-2,3,0,ga
85,0,155,42,159,26,31,149,-0.26,0.9,0.33,-2,3,0,ga
85,0,155,42,159,26,31,149,-0.26,0.89,0.33,0,3,0,ga
87,0,155,41,159,26,31,149,-0.26,0.89,0.33,0,3,0,ga
87,0,155,41,159,26,33,149,-0.26,0.89,0.32,-1,2,0,ga
87,0,157,41,162,28,36,149,-0.26,0.89,0.33,0,3,0,ga
85,0,157,41,159,28,38,146,-0.25,0.89,0.32,-2,2,0,ga
85,0,158,41,159,28,41,149,-0.25,0.88,0.33,-1,2,1,ga
85,0,159,42,156,26,43,149,-0.25,0.89,0.32,-2,2,1,ga
85,0,159,42,156,28,48,149,-0.25,0.89,0.33,-1,2,1,ga
83,0,160,43,156,26,50,146,-0.25,0.89,0.32,-1,1,1,ga
83,0,159,44,156,26,50,146,-0.24,0.88,0.32,0,1,1,ga
83,0,161,45,156,26,50,146,-0.25,0.89,0.32,-2,1,0,ga
83,0,160,46,159,28,53,146,-0.24,0.89,0.32,-2,2,0,ga
83,0,161,46,156,26,53,146,-0.24,0.89,0.32,-2,2,0,ga
83,0,162,47,156,28,55,149,-0.24,0.89,0.32,-2,2,0,ga
80,0,161,47,156,28,55,149,-0.24,0.89,0.32,-1,2,0,ga
83,0,161,48,156,28,55,146,-0.24,0.9,0.32,0,2,0,ga
83,0,161,48,156,28,55,146,-0.24,0.9,0.32,0,2,0,ga
83,0,162,48,156,29,53,146,-0.24,0.9,0.32,0,2,0,ga
83,0,162,48,156,31,55,146,-0.24,0.9,0.32,-1,2,0,ga
83,0,162,48,154,31,55,146,-0.24,0.9,0.32,0,2,0,ga
83,0,162,48,154,31,55,146,-0.24,0.9,0.32,0,3,0,ga
80,0,163,48,154,31,58,146,-0.24,0.9,0.32,0,2,0,ga
78,0,163,48,154,31,58,146,-0.24,0.9,0.32,0,3,0,ga
78,0,163,48,154,31,58,146,-0.24,0.9,0.32,0,2,0,ga
78,0,163,48,154,31,55,146,-0.24,0.9,0.31,0,2,0,ga
76,0,163,48,154,29,58,146,-0.24,0.9,0.31,0,2,0,ga
76,0,163,48,154,29,55,146,-0.24,0.9,0.31,0,2,0,ga
74,0,163,48,154,29,58,144,-0.24,0.9,0.31,0,2,0,ga
71,0,163,48,154,28,58,144,-0.24,0.9,0.31,0,2,0,ga
74,0,163,48,154,29,58,144,-0.24,0.9,0.31,0,2,0,ga
74,0,162,48,156,29,55,144,-0.24,0.9,0.31,0,1,0,ga
76,0,162,48,154,29,55,144,-0.24,0.9,0.31,0,1,0,ga
74,0,162,48,154,29,55,144,-0.24,0.9,0.31,0,1,0,ga
74,0,162,47,151,31,55,144,-0.23,0.9,0.31,0,1,0,ga
74,0,162,47,151,31,53,146,-0.24,0.9,0.31,0,2,0,ga
74,0,161,47,151,31,50,144,-0.24,0.9,0.31,0,2,0,ga
74,0,161,47,151,31,53,146,-0.23,0.9,0.31,0,2,0,ga
74,0,162,47,151,31,50,146,-0.23,0.9,0.3,0,1,0,ga
76,0,162,47,154,31,53,146,-0.23,0.9,0.3,0,2,0,ga
71,0,162,46,154,31,50,146,-0.24,0.9,0.3,0,2,0,ga
69,0,161,46,154,29,50,146,-0.24,0.9,0.3,0,2,0,ga
69,0,161,46,154,29,50,144,-0.24,0.9,0.31,-1,2,0,ga
69,0,161,46,154,29,53,146,-0.23,0.9,0.31,0,2,0,ga
69,0,161,45,156,29,53,144,-0.24,0.9,0.31,0,2,0,ga
69,0,162,45,156,29,53,144,-0.23,0.9,0.3,-1,2,0,ga
69,0,161,45,156,29,53,144,-0.23,0.9,0.31,0,2,0,ga
67,0,161,45,156,29,53,144,-0.24,0.91,0.3,-1,2,0,ga
67,0,161,46,154,29,53,144,-0.24,0.91,0.3,-1,3,0,ga
67,0,161,46,154,29,53,144,-0.24,0.9,0.31,-1,2,0,ga
67,0,161,46,154,28,53,144,-0.24,0.9,0.31,-1,2,0,ga
69,0,162,46,156,28,53,142,-0.24,0.9,0.31,0,2,0,ga
69,0,162,46,156,28,55,144,-0.23,0.9,0.3,0,1,0,ga
67,0,162,46,154,28,50,142,-0.24,0.9,0.3,0,2,0,ga
65,0,161,46,154,28,53,142,-0.24,0.9,0.3,-1,1,0,ga
65,0,161,46,156,28,53,142,-0.23,0.9,0.3,0,2,0,ga
65,0,161,46,156,28,53,142,-0.24,0.9,0.3,-2,1,-1,ga
65,0,161,46,156,28,53,139,-0.24,0.9,0.3,-1,2,-1,ga
65,0,160,45,154,26,50,139,-0.24,0.9,0.3,-1,2,-2,ga
65,0,160,44,154,28,50,139,-0.24,0.9,0.3,-1,2,-2,ga
62,0,160,44,154,28,50,139,-0.24,0.9,0.3,-2,1,-2,ga
62,0,160,44,151,28,48,139,-0.24,0.9,0.3,-1,2,-2,ga
62,0,160,44,154,28,46,139,-0.25,0.9,0.3,-2,2,-2,ga
62,0,160,44,151,28,46,139,-0.25,0.9,0.3,-2,3,-2,ga
62,0,160,44,151,26,46,139,-0.25,0.9,0.3,-1,3,-3,ga
62,0,160,44,151,26,48,139,-0.25,0.9,0.3,0,3,-3,ga
60,0,160,44,151,26,48,139,-0.26,0.9,0.3,0,3,-3,ga
60,0,159,45,151,26,48,139,-0.26,0.9,0.3,-1,3,-2,ga
58,0,158,46,154,26,48,139,-0.26,0.9,0.3,-1,3,-2,ga
58,0,158,47,154,26,48,139,-0.26,0.9,0.29,-1,2,-1,ga
56,0,158,48,156,28,50,139,-0.26,0.9,0.3,0,3,0,ga
56,0,157,50,156,28,50,139,-0.26,0.9,0.29,-1,2,0,ga
56,0,157,52,156,28,53,139,-0.26,0.9,0.3,0,3,0,ga
56,0,157,53,156,28,53,139,-0.25,0.9,0.29,-1,2,0,ga
56,0,157,55,156,26,50,139,-0.25,0.9,0.29,-1,3,0,ga
56,0,157,56,154,26,50,139,-0.25,0.9,0.29,-2,2,0,ga
53,0,157,57,154,26,50,139,-0.25,0.89,0.29,-2,2,0,ga
53,0,158,57,154,26,50,139,-0.25,0.89,0.29,-2,2,0,ga
53,0,160,57,154,28,50,142,-0.24,0.89,0.29,-1,2,0,ga
53,0,160,57,154,26,53,142,-0.25,0.9,0.3,-1,2,0,ga
53,0,160,56,151,26,50,142,-0.25,0.89,0.29,-1,2,-1,ga
51,0,160,55,151,26,50,142,-0.25,0.89,0.3,0,3,-1,ga
51,0,160,54,151,26,48,142,-0.25,0.89,0.29,-1,2,-2,ga
49,0,160,53,151,26,50,142,-0.25,0.89,0.3,0,2,-2,ga
47,0,160,52,148,26,50,144,-0.25,0.9,0.3,0,2,-2,ga
47,0,160,51,148,26,50,144,-0.25,0.9,0.3,0,2,-1,ga
47,0,160,50,148,26,48,144,-0.26,0.9,0.29,0,2,-1,ga
47,0,160,49,148,26,48,142,-0.26,0.9,0.29,0,3,-1,ga
49,0,160,48,148,25,46,142,-0.26,0.9,0.29,-1,2,-1,ga
49,0,160,48,148,26,46,142,-0.26,0.9,0.29,0,2,-1,ga
47,0,160,48,148,26,48,139,-0.26,0.9,0.29,-1,3,-1,ga
49,0,159,47,148,25,46,142,-0.26,0.9,0.29,-2,2,-1,ga
47,0,160,47,151,25,46,139,-0.26,0.9,0.29,-2,2,0,ga
47,0,160,47,145,25,46,137,-0.26,0.9,0.29,-2,2,0,ga
47,0,159,46,148,25,46,137,-0.26,0.9,0.29,-2,2,0,ga
47,0,159,46,148,25,43,137,-0.26,0.9,0.29,-2,2,-1,ga
47,0,159,46,151,25,43,137,-0.26,0.9,0.29,-2,2,-1,ga
47,0,158,46,148,23,43,134,-0.26,0.9,0.29,-3,2,-1,ga
47,0,158,46,148,25,43,134,-0.26,0.9,0.29,-3,2,-2,ga
44,0,159,45,148,23,41,134,-0.26,0.9,0.29,-3,2,-2,ga
47,0,158,45,148,23,41,137,-0.26,0.9,0.29,-3,2,-2,ga
42,0,158,45,148,23,41,134,-0.26,0.9,0.29,-3,2,-2,ga
47,0,158,45,148,23,41,134,-0.26,0.9,0.29,-3,2,-2,ga
49,0,158,45,151,23,41,134,-0.26,0.91,0.29,-3,3,-2,ga
49,0,158,45,151,23,41,134,-0.27,0.9,0.29,-3,2,-2,ga
47,0,158,45,148,23,41,134,-0.27,0.9,0.29,-3,2,-2,ga
49,0,158,44,148,23,41,134,-0.27,0.9,0.29,-3,2,-1,ga
49,0,158,44,148,23,38,134,-0.27,0.9,0.29,-3,2,-1,ga
49,0,158,44,151,23,41,137,-0.27,0.9,0.29,-3,2,0,ga
49,0,157,44,151,25,41,134,-0.27,0.9,0.3,-2,2,0,ga
51,0,158,44,151,25,38,134,-0.27,0.9,0.29,-3,2,0,ga
51,0,158,43,154,25,41,134,-0.27,0.89,0.3,-2,2,0,ga
49,0,159,43,154,25,38,137,-0.27,0.89,0.3,-3,2,0,ga
49,0,159,43,154,25,38,137,-0.27,0.89,0.3,-2,1,0,ga
49,0,158,43,154,25,38,134,-0.27,0.89,0.3,-2,2,0,ga
53,0,158,43,154,25,41,134,-0.26,0.89,0.3,-2,2,0,ga
53,0,158,43,156,26,41,134,-0.26,0.89,0.3,-2,2,0,ga
53,0,158,43,156,26,43,137,-0.27,0.89,0.3,-2,2,0,ga
51,0,159,43,154,26,43,134,-0.26,0.9,0.3,-1,2,0,ga
51,0,159,43,154,26,43,134,-0.27,0.9,0.3,-2,2,0,ga
51,0,159,43,154,26,43,137,-0.27,0.9,0.3,-2,2,0,ga
51,0,158,43,154,26,43,137,-0.27,0.9,0.3,-2,2,-1,ga
51,0,158,43,154,26,43,134,-0.27,0.9,0.3,-2,2,-1,ga
49,0,158,44,151,26,43,134,-0.27,0.9,0.3,-2,2,-1,ga
49,0,158,43,151,26,38,134,-0.27,0.9,0.3,-2,2,-1,ga
49,0,158,43,148,26,38,137,-0.27,0.9,0.3,-2,2,-1,ga
49,0,157,43,148,25,38,134,-0.27,0.9,0.3,-2,2,0,ga
49,0,158,43,148,25,38,134,-0.27,0.9,0.3,-2,2,0,ga
49,0,157,43,145,25,36,134,-0.27,0.89,0.3,-2,2,0,ga
49,0,157,43,148,25,38,137,-0.27,0.89,0.3,-2,2,0,ga
49,0,157,43,148,26,38,137,-0.27,0.89,0.3,-2,2,0,ga
51,0,156,43,151,25,38,137,-0.27,0.89,0.3,-2,2,0,ga
51,0,156,43,148,25,38,137,-0.27,0.89,0.3,-2,2,0,ga
51,0,156,43,151,25,38,139,-0.27,0.89,0.3,-2,2,0,ga
51,0,156,42,148,25,41,139,-0.27,0.89,0.3,-2,2,0,ga
51,0,157,42,148,25,41,139,-0.27,0.89,0.3,-2,2,0,ga
51,0,157,42,148,25,38,139,-0.27,0.89,0.3,-2,2,0,ga
49,0,157,41,151,26,38,139,-0.27,0.89,0.3,-2,2,0,ga
49,0,157,41,151,26,38,139,-0.27,0.89,0.31,-2,2,0,ga
49,0,156,42,148,26,38,139,-0.27,0.89,0.3,-2,2,0,ga
49,0,156,42,148,25,36,137,-0.27,0.89,0.31,-2,2,0,ga
47,0,157,42,145,25,33,139,-0.27,0.89,0.31,-2,2,0,ga
47,0,157,42,148,26,33,137,-0.27,0.89,0.31,-2,2,0,ga
44,0,157,42,148,26,33,137,-0.27,0.89,0.31,-2,2,0,ga
42,0,156,41,151,26,33,137,-0.27,0.89,0.31,-2,2,0,ga
42,0,156,42,148,26,31,137,-0.27,0.89,0.31,-2,2,0,ga
40,0,156,42,148,28,31,137,-0.27,0.89,0.31,-2,2,0,ga
40,0,156,42,148,26,33,137,-0.27,0.89,0.31,-2,2,0,ga
40,0,157,42,148,26,29,134,-0.27,0.89,0.31,-2,2,0,ga
38,0,157,42,148,26,29,134,-0.27,0.89,0.31,-2,2,0,ga
38,0,157,42,148,26,31,134,-0.27,0.89,0.31,-2,2,0,ga
35,0,157,42,148,26,31,134,-0.27,0.89,0.31,-2,2,0,ga
38,0,157,42,148,23,31,134,-0.27,0.89,0.31,-1,2,0,ga
38,0,157,42,148,23,31,137,-0.27,0.89,0.31,-1,2,0,ga
38,0,157,42,148,23,31,137,-0.27,0.89,0.31,0,2,0,ga
38,0,157,42,148,23,31,134,-0.27,0.89,0.31,-1,2,0,ga
38,0,156,42,148,23,31,134,-0.27,0.89,0.31,0,2,0,ga
40,0,156,42,148,23,31,134,-0.27,0.89,0.31,-1,1,0,ga
40,0,156,42,148,23,36,137,-0.27,0.89,0.31,-1,2,0,ga
42,0,156,41,148,23,33,137,-0.27,0.89,0.31,-1,2,0,ga
42,0,156,41,148,23,33,134,-0.27,0.89,0.31,-1,2,0,ga
42,0,156,41,145,22,33,134,-0.27,0.89,0.31,-1,2,0,ga
42,0,156,41,148,23,33,134,-0.27,0.89,0.31,-1,2,0,ga
42,0,156,41,148,23,36,134,-0.27,0.89,0.31,-1,2,0,ga
42,0,156,40,148,23,36,132,-0.27,0.89,0.31,-1,2,0,ga
42,0,156,40,148,23,36,132,-0.27,0.89,0.31,-1,2,0,ga
42,0,156,40,148,23,36,134,-0.27,0.89,0.31,-1,2,0,ga
42,0,156,40,148,23,36,132,-0.27,0.89,0.31,-1,2,0,ga
42,0,155,40,148,23,38,132,-0.27,0.89,0.31,-1,2,0,ga
40,0,155,40,145,23,38,134,-0.26,0.89,0.31,-1,2,0,ga
42,0,155,40,148,23,41,134,-0.26,0.89,0.31,-1,2,0,ga
42,0,155,40,148,23,38,134,-0.26,0.89,0.31,-2,2,0,ga
42,0,154,40,148,25,38,132,-0.26,0.89,0.31,-1,2,0,ga
42,0,154,40,145,25,38,132,-0.26,0.89,0.31,-2,2,0,ga
42,0,155,40,145,25,38,134,-0.26,0.89,0.31,-2,2,0,ga
42,0,154,40,145,25,38,134,-0.26,0.89,0.31,0,2,0,ga
42,0,155,40,145,25,38,134,-0.27,0.9,0.31,-1,2,0,ga
44,0,155,40,148,25,38,134,-0.27,0.89,0.31,-2,2,0,ga
42,0,156,39,148,25,33,134,-0.27,0.89,0.32,-1,2,0,ga
44,0,156,40,148,25,33,134,-0.27,0.89,0.32,-2,2,0,ga
47,0,156,40,148,23,33,134,-0.27,0.89,0.32,-1,3,0,ga
47,0,156,40,148,23,33,134,-0.27,0.9,0.32,-2,2,0,ga
49,0,156,40,145,23,33,134,-0.27,0.9,0.32,-1,2,0,ga
51,0,157,40,148,23,33,134,-0.28,0.9,0.32,-1,3,0,ga
53,0,157,40,148,23,33,137,-0.27,0.9,0.32,-1,2,0,ga
53,0,157,40,148,23,31,134,-0.27,0.9,0.31,-2,2,0,ga
53,0,156,40,148,23,31,137,-0.27,0.89,0.32,-2,2,0,ga
53,0,156,40,148,23,31,137,-0.27,0.89,0.31,-2,2,0,ga
56,0,156,40,148,23,31,134,-0.27,0.89,0.31,-2,2,0,ga
58,0,156,40,148,23,33,134,-0.27,0.89,0.31,-2,2,0,ga
58,0,156,40,145,23,33,134,-0.27,0.89,0.31,-1,1,0,ga
56,0,156,40,145,23,36,134,-0.27,0.89,0.31,-1,1,0,ga
56,0,157,40,145,25,33,134,-0.26,0.89,0.31,-1,1,0,ga
51,0,156,40,145,25,36,137,-0.26,0.89,0.31,-1,1,0,ga
51,0,157,41,145,25,36,137,-0.26,0.89,0.31,0,2,0,ga
51,0,157,41,145,25,38,134,-0.26,0.89,0.31,-1,2,0,ga
51,0,158,41,148,25,38,134,-0.26,0.89,0.31,-1,2,0,ga
51,0,158,41,145,25,36,134,-0.26,0.88,0.31,-1,2,0,ga
51,0,158,41,145,25,38,134,-0.26,0.89,0.31,0,2,0,ga
51,0,157,41,148,25,36,134,-0.26,0.89,0.31,0,2,0,ga
51,0,158,41,148,25,36,134,-0.26,0.89,0.31,-1,2,0,ga
53,0,157,41,151,25,36,134,-0.26,0.89,0.31,-1,2,0,ga
53,0,157,41,148,25,36,134,-0.26,0.89,0.31,-1,2,0,ga
56,0,158,41,148,25,36,132,-0.26,0.89,0.31,-1,2,0,ga
53,0,158,41,148,25,36,132,-0.26,0.89,0.31,-2,2,0,ga
53,0,157,40,148,25,36,132,-0.26,0.89,0.31,-1,2,0,ga
53,0,157,40,148,23,36,132,-0.26,0.89,0.31,-2,2,0,ga
51,0,156,40,148,25,38,132,-0.26,0.9,0.31,-2,2,0,ga
49,0,156,40,148,25,38,132,-0.26,0.89,0.31,-2,2,-1,ga
51,0,156,40,148,23,41,132,-0.26,0.89,0.31,-2,2,-1,ga
51,0,155,40,148,25,41,132,-0.27,0.89,0.31,-2,2,-1,ga
51,0,156,40,148,25,41,132,-0.26,0.89,0.31,-2,2,-1,ga
49,0,155,39,148,25,38,132,-0.26,0.89,0.31,-2,2,-1,ga
49,0,155,39,151,25,36,134,-0.27,0.89,0.31,-2,2,-1,ga
51,0,154,39,151,25,36,134,-0.26,0.89,0.31,-2,2,0,ga
49,0,155,39,151,25,36,132,-0.26,0.89,0.31,-2,2,0,ga
51,0,155,39,151,26,36,134,-0.26,0.89,0.31,-2,2,0,ga
51,0,156,40,151,26,33,134,-0.26,0.89,0.31,-2,2,0,ga
51,0,156,40,151,25,36,137,-0.26,0.89,0.31,-2,2,0,ga
49,0,157,40,151,26,33,134,-0.26,0.89,0.31,-2,2,0,ga
49,0,157,39,148,25,33,134,-0.26,0.89,0.31,-1,2,0,ga
49,0,158,40,151,25,33,132,-0.26,0.89,0.31,-2,2,0,ga
49,0,158,40,151,25,33,134,-0.26,0.89,0.31,-2,2,0,ga
49,0,158,40,151,25,33,134,-0.26,0.89,0.31,-2,1,0,ga
47,0,158,39,148,25,33,134,-0.26,0.89,0.31,-2,1,0,ga
49,0,158,39,148,23,33,134,-0.26,0.89,0.31,-2,1,0,ga
49,0,157,39,151,23,31,134,-0.26,0.89,0.31,-2,1,0,ga
49,0,157,39,151,23,33,132,-0.26,0.89,0.31,-2,2,0,ga
47,0,156,39,148,23,31,132,-0.26,0.89,0.31,-2,2,0,ga
47,0,155,38,148,23,31,132,-0.26,0.89,0.31,-2,2,0,ga
47,0,155,38,148,23,31,132,-0.26,0.89,0.31,-2,2,0,ga
47,0,155,38,148,23,29,134,-0.26,0.89,0.31,-2,2,0,ga
47,0,155,38,145,23,29,132,-0.26,0.89,0.31,-2,1,0,ga
47,0,155,37,145,23,31,134,-0.26,0.89,0.31,-2,2,-1,ga
47,0,155,38,145,25,24,132,-0.26,0.89,0.31,-2,2,-1,ga
47,0,155,38,145,25,21,132,-0.27,0.89,0.31,-1,3,-1,ga
47,0,155,38,145,23,24,132,-0.26,0.89,0.31,-2,2,0,ga
47,0,155,38,145,23,21,132,-0.26,0.89,0.31,-2,2,-1,ga
49,0,155,38,145,23,21,134,-0.26,0.89,0.31,-1,2,-1,ga
49,0,155,38,145,25,21,134,-0.27,0.89,0.31,-1,2,-1,ga
49,0,155,38,145,23,21,132,-0.27,0.89,0.31,-2,2,-1,ga
47,0,154,38,145,25,24,132,-0.27,0.89,0.31,-1,3,-1,ga
47,0,154,38,145,23,24,130,-0.27,0.89,0.31,0,3,-2,ga
47,0,154,38,145,23,26,130,-0.27,0.89,0.31,0,2,-1,ga
49,0,154,38,145,22,33,130,-0.27,0.89,0.31,-1,2,-2,ga
47,0,154,38,145,22,36,130,-0.27,0.89,0.31,-1,2,-2,ga
47,0,154,38,145,23,36,132,-0.27,0.89,0.31,-1,2,-2,ga
47,0,155,38,148,23,36,132,-0.27,0.89,0.31,-1,2,-2,ga
47,0,156,38,148,23,0,134,-0.27,0.89,0.31,-1,2,-2,ga
44,0,155,39,148,22,0,134,-0.27,0.89,0.31,-1,2,-1,ga
44,0,155,39,148,22,7,134,-0.27,0.89,0.31,-1,2,-1,ga
47,0,156,40,148,23,0,134,-0.27,0.89,0.31,-3,2,-2,ga
44,0,156,39,148,23,0,137,-0.28,0.89,0.31,-4,3,-2,ga
44,0,157,39,148,23,55,134,-0.28,0.89,0.31,-5,3,-2,ga
44,0,157,38,148,23,55,137,-0.28,0.89,0.31,-4,3,-2,ga
47,0,157,38,148,23,0,137,-0.28,0.88,0.32,-4,4,-2,ga
44,0,156,38,145,23,31,137,-0.28,0.88,0.32,-4,4,-2,ga
44,0,156,37,142,22,41,134,-0.28,0.88,0.32,-4,3,-2,ga
44,0,156,37,142,23,60,134,-0.29,0.88,0.32,-4,3,-2,ga
44,0,157,37,145,23,43,134,-0.28,0.88,0.32,-4,3,-2,ga
44,0,156,36,145,23,46,134,-0.28,0.88,0.32,-4,3,-2,ga
44,0,156,36,145,22,53,134,-0.29,0.88,0.33,-2,3,-1,ga
44,0,156,36,145,22,0,134,-0.28,0.88,0.33,-1,3,0,ga
44,0,156,36,145,22,4,137,-0.28,0.88,0.32,-1,3,0,ga
44,0,155,36,145,23,12,137,-0.28,0.88,0.33,-1,3,0,ga
44,0,156,36,145,23,26,137,-0.29,0.88,0.33,-2,2,0,ga
42,0,156,37,148,23,0,137,-0.29,0.88,0.33,-2,2,0,ga
44,0,156,37,148,23,16,137,-0.29,0.88,0.33,-2,2,0,ga
44,0,156,36,148,23,9,137,-0.29,0.88,0.33,-2,2,0,ga
44,0,156,36,148,23,31,137,-0.29,0.88,0.33,-2,2,-1,ga
42,0,157,37,148,22,9,137,-0.29,0.88,0.33,0,2,-1,ga
42,0,157,37,148,22,38,139,-0.29,0.88,0.33,0,2,-1,ga
40,0,157,36,145,22,150,139,-0.29,0.88,0.32,0,2,0,ga
40,0,157,37,145,22,14,139,-0.29,0.88,0.32,0,3,0,ga
42,0,157,37,145,22,16,139,-0.29,0.88,0.32,0,3,0,ga
40,0,156,37,145,22,125,134,-0.29,0.88,0.32,1,3,0,ga
42,0,157,37,145,22,60,134,-0.29,0.88,0.32,1,4,0,ga
42,0,157,37,145,22,36,134,-0.29,0.88,0.32,0,4,0,ga
42,0,157,38,142,23,106,134,-0.29,0.88,0.31,0,4,0,ga
44,0,155,38,142,23,79,134,-0.29,0.88,0.31,0,4,0,ga
47,0,156,39,145,25,84,134,-0.29,0.88,0.31,0,5,0,ga
49,0,156,39,145,23,87,134,-0.29,0.88,0.31,-2,4,0,ga
49,0,156,40,148,25,87,134,-0.29,0.88,0.31,-2,5,0,ga
49,0,156,41,148,25,84,134,-0.29,0.88,0.31,-2,4,0,ga
49,0,157,41,148,25,84,134,-0.29,0.88,0.31,-2,4,0,ga
49,0,158,41,148,25,84,137,-0.29,0.88,0.31,-3,4,-1,ga
49,0,158,41,148,26,84,137,-0.29,0.88,0.31,-3,4,0,ga
49,0,157,41,148,26,84,139,-0.3,0.88,0.31,-2,4,-1,ga
47,0,157,41,151,26,82,139,-0.3,0.88,0.31,-2,4,-1,ga
44,0,159,41,148,26,84,139,-0.3,0.88,0.31,-2,4,-1,ga
42,0,159,41,145,26,82,137,-0.3,0.88,0.31,-2,3,-1,ga
42,0,159,41,145,26,84,137,-0.3,0.88,0.31,-2,4,-1,ga
42,0,159,41,145,26,82,139,-0.3,0.88,0.31,-2,3,-1,ga
42,0,158,40,142,26,84,139,-0.3,0.88,0.31,-1,3,0,ga
40,0,159,40,142,25,82,139,-0.3,0.88,0.31,-2,3,0,ga
40,0,159,40,142,25,82,139,-0.3,0.88,0.31,-2,3,0,ga
38,0,159,41,140,23,82,139,-0.3,0.88,0.31,-2,3,0,ga
38,0,159,41,140,23,84,137,-0.3,0.88,0.31,-2,3,0,ga
35,0,159,41,142,22,84,137,-0.3,0.88,0.31,-2,3,0,ga
35,0,159,42,142,22,82,137,-0.3,0.88,0.31,-3,4,-1,ga
35,0,159,42,142,22,84,137,-0.3,0.88,0.31,-2,3,0,ga
35,0,160,42,142,22,82,134,-0.3,0.88,0.31,-2,3,0,ga
38,0,160,42,142,22,82,134,-0.3,0.88,0.31,-2,3,0,ga
35,0,159,42,145,22,79,134,-0.3,0.88,0.31,-1,3,0,ga
38,0,159,43,145,22,82,134,-0.3,0.88,0.31,-1,3,0,ga
38,0,159,43,145,23,82,132,-0.3,0.88,0.31,0,3,0,ga
35,0,159,43,145,22,79,132,-0.3,0.88,0.31,-1,3,0,ga
38,0,159,43,145,23,79,132,-0.3,0.88,0.3,-1,3,0,ga
38,0,159,43,145,23,77,134,-0.3,0.88,0.3,-1,3,0,ga
38,0,159,43,145,23,77,134,-0.31,0.88,0.3,0,2,0,ga
38,0,159,43,145,23,75,134,-0.31,0.88,0.3,-1,2,-1,ga
38,0,160,42,142,23,75,134,-0.31,0.88,0.3,-1,2,0,ga
40,0,160,42,145,23,72,134,-0.31,0.88,0.3,-2,2,0,ga
40,0,160,42,142,23,72,134,-0.31,0.88,0.3,-2,2,0,ga
38,0,160,42,145,22,72,132,-0.31,0.88,0.3,-2,2,0,ga
38,0,160,42,142,22,75,132,-0.31,0.88,0.3,-2,2,-1,ga
40,0,160,42,140,22,75,132,-0.31,0.88,0.3,-2,2,0,ga
40,0,161,42,140,23,75,132,-0.31,0.88,0.3,-2,2,0,ga
40,0,161,42,140,22,77,132,-0.31,0.88,0.3,-2,2,0,ga
44,0,161,43,140,22,77,132,-0.31,0.88,0.3,-2,2,0,ga
44,0,161,43,140,22,79,132,-0.31,0.88,0.3,-2,2,0,ga
44,0,161,43,142,22,77,132,-0.31,0.88,0.3,-2,2,-1,ga
42,0,161,44,142,22,79,134,-0.31,0.88,0.3,-1,3,-1,ga
42,0,161,44,142,22,79,134,-0.31,0.88,0.3,-2,3,-1,ga
42,0,160,45,142,22,79,137,-0.31,0.88,0.3,-2,3,-1,ga
42,0,160,45,142,22,75,134,-0.32,0.88,0.3,-2,3,-2,ga
44,0,160,44,145,22,75,134,-0.32,0.87,0.3,-2,2,-2,ga
42,0,159,44,145,20,77,134,-0.32,0.87,0.3,-2,2,-3,ga
42,0,159,44,145,20,77,137,-0.32,0.87,0.3,-2,2,-2,ga
40,0,159,42,148,22,77,137,-0.32,0.87,0.3,-2,2,-2,ga
40,0,158,42,145,20,75,137,-0.32,0.87,0.3,-2,2,-2,ga
40,0,158,41,145,20,77,137,-0.32,0.87,0.31,-2,2,-2,ga
38,0,158,40,145,22,79,137,-0.32,0.87,0.31,-2,1,-2,ga
38,0,158,40,145,20,79,134,-0.32,0.87,0.31,-2,2,-2,ga
38,0,159,40,145,22,79,134,-0.32,0.87,0.31,-1,1,-2,ga
40,0,159,38,145,22,84,134,-0.32,0.87,0.31,-2,2,-2,ga
40,0,159,37,142,22,92,137,-0.32,0.87,0.31,-2,2,0,ga
40,0,159,37,142,22,92,134,-0.32,0.87,0.31,-2,2,0,ga
40,0,159,37,142,22,89,134,-0.32,0.87,0.31,-2,2,0,ga
38,0,159,36,142,22,89,134,-0.32,0.87,0.31,-2,2,0,ga
38,0,159,37,145,22,89,132,-0.32,0.87,0.31,-2,2,0,ga
38,0,159,36,142,22,89,132,-0.32,0.87,0.31,-2,2,0,ga
38,0,159,36,145,22,89,132,-0.32,0.87,0.31,-2,2,0,ga
38,0,159,36,142,22,87,132,-0.32,0.87,0.31,-2,2,0,ga
38,0,159,36,142,22,87,132,-0.32,0.87,0.31,-1,2,0,ga
35,0,158,36,145,22,87,132,-0.32,0.87,0.31,-1,2,0,ga
33,0,158,37,145,22,79,132,-0.32,0.87,0.31,-1,2,-1,ga
35,0,158,36,145,20,77,132,-0.32,0.87,0.31,-1,1,-1,ga
33,0,158,37,145,19,77,132,-0.32,0.87,0.31,-1,1,-1,ga
35,0,158,36,145,19,77,132,-0.32,0.87,0.31,-1,1,0,ga
33,0,158,37,145,19,79,132,-0.32,0.87,0.31,-1,1,0,ga
33,0,158,37,145,19,82,132,-0.32,0.87,0.31,-1,2,0,ga
29,0,158,37,145,19,82,132,-0.33,0.87,0.31,-2,2,0,ga
29,0,158,37,142,19,82,132,-0.33,0.87,0.31,-2,2,0,ga
29,0,157,37,142,19,82,130,-0.33,0.87,0.31,-2,2,0,ga
31,0,158,38,142,19,84,130,-0.33,0.87,0.31,-2,2,0,ga
31,0,157,37,142,19,84,130,-0.33,0.87,0.31,-2,2,0,ga
31,0,157,38,142,19,84,130,-0.33,0.87,0.31,-2,2,0,ga
31,0,157,38,142,20,87,132,-0.33,0.87,0.31,-2,2,0,ga
31,0,157,38,142,22,87,132,-0.33,0.87,0.31,-2,2,0,ga
33,0,157,38,142,22,84,132,-0.33,0.87,0.31,-2,3,0,ga
35,0,157,38,142,22,84,132,-0.33,0.87,0.31,-2,3,0,ga
42,0,157,37,145,22,82,134,-0.33,0.87,0.31,-2,2,0,ga
44,0,158,38,145,22,79,132,-0.33,0.87,0.31,-2,2,0,ga
47,0,158,37,145,23,77,134,-0.32,0.87,0.31,-2,2,0,ga
47,0,157,37,145,23,77,134,-0.33,0.87,0.31,-2,2,0,ga
49,0,159,36,148,23,77,132,-0.33,0.87,0.31,-2,2,0,ga
51,0,159,36,145,23,75,132,-0.33,0.87,0.31,-2,2,0,ga
53,0,159,36,145,23,75,130,-0.33,0.87,0.31,-2,2,0,ga
58,0,160,35,145,22,75,130,-0.33,0.87,0.31,-2,2,-1,ga
60,0,159,35,140,22,75,127,-0.32,0.87,0.31,-1,2,0,ga
62,0,160,35,140,22,75,127,-0.32,0.86,0.31,-2,2,-1,ga
65,0,160,36,140,22,75,127,-0.32,0.86,0.31,-2,2,0,ga
65,0,159,35,142,22,77,125,-0.32,0.86,0.31,-2,2,0,ga
65,0,159,36,140,22,77,125,-0.32,0.87,0.32,-2,2,-1,ga
65,0,159,36,142,22,79,125,-0.32,0.87,0.31,-2,2,0,ga
67,0,159,36,140,22,79,127,-0.32,0.87,0.31,-2,2,0,ga
67,0,158,37,140,22,82,125,-0.32,0.87,0.31,-2,2,0,ga
67,0,158,37,140,22,82,125,-0.32,0.87,0.31,-2,2,0,ga
69,0,158,37,142,22,82,127,-0.32,0.87,0.31,-2,2,-1,ga
71,0,158,37,142,22,82,127,-0.32,0.87,0.32,-2,2,-1,ga
71,0,158,37,142,22,82,130,-0.32,0.87,0.31,-2,2,-1,ga
74,0,158,37,142,22,82,130,-0.33,0.87,0.32,-2,2,-2,ga
74,0,159,37,142,22,82,130,-0.33,0.87,0.32,-2,2,-1,ga
76,0,159,37,142,22,82,130,-0.33,0.87,0.31,-2,2,-1,ga
78,0,159,37,142,22,79,130,-0.33,0.87,0.32,-2,2,-1,ga
78,0,159,37,140,22,79,130,-0.33,0.87,0.32,-2,2,-1,ga
80,0,159,37,140,22,77,130,-0.33,0.87,0.32,-2,2,-1,ga
80,0,160,37,140,22,77,132,-0.33,0.87,0.32,-2,2,-1,ga
80,0,159,37,140,22,77,132,-0.33,0.87,0.32,-2,2,0,ga
80,0,159,37,140,22,77,132,-0.33,0.87,0.32,-2,2,0,ga
78,0,159,37,140,22,79,130,-0.33,0.87,0.32,-1,2,0,ga
78,0,159,37,140,22,77,130,-0.33,0.87,0.32,-1,2,0,ga
78,0,158,37,140,22,79,130,-0.33,0.87,0.32,-1,2,0,ga
78,0,158,37,140,20,77,130,-0.32,0.87,0.32,-2,3,0,ga
80,0,157,37,140,22,79,132,-0.32,0.87,0.32,-2,3,0,ga
78,0,157,37,142,22,82,132,-0.32,0.87,0.32,-2,2,0,ga
78,0,157,37,140,20,82,132,-0.32,0.87,0.32,-2,2,0,ga
78,0,157,37,142,20,82,132,-0.32,0.87,0.31,-1,2,0,ga
76,0,157,37,142,20,84,132,-0.33,0.87,0.31,-1,3,0,ga
76,0,157,36,142,20,84,132,-0.33,0.86,0.31,-2,2,0,ga
76,0,157,36,142,20,84,132,-0.33,0.86,0.31,-2,2,0,ga
76,0,157,36,142,22,82,132,-0.33,0.86,0.31,-2,2,0,ga
74,0,157,36,142,22,82,132,-0.33,0.86,0.31,-1,2,0,ga
71,0,157,36,142,22,82,132,-0.33,0.86,0.31,-1,1,0,ga
71,0,158,35,142,22,82,132,-0.33,0.86,0.31,-2,2,0,ga
76,0,157,36,142,23,79,132,-0.33,0.86,0.31,-1,2,0,ga
78,0,157,36,142,22,79,130,-0.33,0.86,0.31,-2,2,0,ga
78,0,157,36,142,23,79,132,-0.33,0.86,0.31,-1,2,-1,ga
80,0,157,36,142,23,77,130,-0.33,0.86,0.31,-2,2,-1,ga
0,0,0,0,77,51,115,70,-0.95,0.2,0.07,-2,3,-3,gha
0,0,0,0,62,41,115,55,-0.95,0.2,0.07,-3,2,-3,gha
0,0,0,0,40,31,115,42,-0.95,0.19,0.07,-4,3,-2,gha
0,0,0,0,20,24,115,32,-0.96,0.19,0.07,-5,3,0,gha
0,0,0,0,5,16,115,25,-0.95,0.19,0.06,-6,5,1,gha
0,0,0,0,0,12,115,5,-0.95,0.18,0.06,-9,6,2,gha
0,0,0,0,0,7,115,0,-0.96,0.18,0.06,-12,9,3,gha
0,0,0,0,0,0,117,0,-0.96,0.18,0.06,-15,11,3,gha
0,0,0,0,0,0,117,0,-0.96,0.19,0.06,-18,13,3,gha
0,0,0,0,0,0,117,0,-0.95,0.2,0.05,-20,14,2,gha
0,0,0,0,0,0,115,0,-0.95,0.21,0.04,-21,15,1,gha
0,0,0,0,0,0,115,0,-0.94,0.22,0.03,-23,15,0,gha
0,0,0,0,0,0,115,0,-0.94,0.22,0.03,-22,13,-2,gha
0,0,0,0,0,0,115,0,-0.93,0.22,0.03,-19,10,-5,gha
0,0,0,0,0,0,115,0,-0.94,0.23,0.03,-17,7,-9,gha
0,0,0,0,0,0,115,0,-0.94,0.22,0.02,-11,6,-12,gha
0,0,0,0,0,0,115,0,-0.94,0.21,0.02,-6,3,-14,gha
0,0,0,0,0,0,115,0,-0.95,0.19,0.02,-3,0,-15,gha
0,0,0,0,0,0,115,0,-0.95,0.17,0.02,0,-3,-14,gha
0,0,0,0,0,0,112,0,-0.96,0.15,0.03,2,-3,-12,gha
0,0,0,0,0,0,115,0,-0.96,0.13,0.05,3,-5,-10,gha
0,0,0,0,0,0,115,0,-0.96,0.11,0.06,3,-4,-8,gha
0,0,0,0,0,0,115,0,-0.96,0.09,0.07,3,-2,-7,gha
0,0,0,0,0,0,115,0,-0.98,0.08,0.07,1,1,-6,gha
0,0,0,0,0,0,115,0,-0.97,0.07,0.07,-1,2,-3,gha
0,0,0,0,0,0,115,0,-0.97,0.08,0.08,-4,3,0,gha
0,0,0,0,0,0,115,0,-0.97,0.08,0.08,-5,3,1,gha
0,0,0,0,0,0,115,0,-0.97,0.09,0.07,-6,5,2,gha
0,0,0,0,0,0,115,0,-0.97,0.09,0.07,-7,5,2,gha
0,0,0,0,0,0,115,0,-0.96,0.1,0.06,-8,5,2,gha
0,0,0,0,0,0,115,0,-0.97,0.11,0.06,-7,5,1,gha
0,0,0,0,0,0,115,0,-0.97,0.12,0.05,-6,5,1,gha
0,0,0,0,0,0,115,0,-0.97,0.13,0.04,-6,4,2,gha
0,0,0,0,0,0,115,0,-0.96,0.13,0.04,-6,3,2,gha
0,0,0,0,0,0,115,0,-0.97,0.14,0.04,-6,3,2,gha
0,0,0,0,0,0,115,0,-0.97,0.13,0.04,-6,2,2,gha
0,0,0,0,0,0,115,0,-0.97,0.13,0.04,-6,2,2,gha
0,0,0,0,0,0,115,0,-0.96,0.13,0.05,-6,2,2,gha
0,0,0,0,0,0,115,0,-0.96,0.13,0.05,-5,2,2,gha
0,0,0,0,0,0,115,0,-0.96,0.14,0.05,-4,3,2,gha
0,0,0,0,0,0,115,0,-0.96,0.14,0.05,-4,3,1,gha
0,0,0,0,0,0,115,0,-0.96,0.14,0.05,-4,4,1,gha
0,0,0,0,0,0,115,0,-0.96,0.14,0.05,-3,3,1,gha
0,0,0,0,0,0,115,0,-0.96,0.14,0.05,-3,4,0,gha
0,0,0,0,0,0,115,0,-0.96,0.14,0.05,-2,3,0,gha
0,0,0,0,0,0,115,0,-0.96,0.14,0.05,-2,3,0,gha
0,0,0,0,0,0,115,0,-0.96,0.14,0.04,-2,3,0,gha
0,0,0,0,0,0,115,0,-0.96,0.14,0.04,-2,3,0,gha
0,0,0,0,0,0,115,0,-0.96,0.14,0.04,-2,3,-1,gha
0,0,0,0,0,0,115,0,-0.96,0.14,0.04,-1,2,-1,gha
0,0,0,0,0,0,115,0,-0.96,0.14,0.04,-1,2,-1,gha
0,0,0,0,0,0,115,0,-0.96,0.14,0.04,-1,2,-1,gha
0,0,0,0,0,0,115,0,-0.96,0.14,0.04,-2,2,0,gha
0,0,0,0,0,0,115,0,-0.96,0.14,0.04,-2,2,0,gha
0,0,0,0,0,0,115,0,-0.96,0.14,0.04,-2,3,0,gha
0,0,0,0,0,0,115,0,-0.96,0.14,0.04,-3,3,0,gha
0,0,0,0,0,0,115,0,-0.96,0.14,0.04,-3,3,0,gha
0,0,0,0,0,0,115,0,-0.96,0.14,0.04,-3,3,0,gha
0,0,0,0,0,0,115,0,-0.96,0.14,0.04,-3,3,0,gha
0,0,0,0,0,0,115,0,-0.96,0.14,0.04,-3,3,0,gha
0,0,0,0,0,0,115,0,-0.96,0.14,0.04,-3,3,0,gha
0,0,0,0,0,0,115,0,-0.96,0.14,0.04,-3,3,0,gha
0,0,0,0,0,0,115,0,-0.96,0.14,0.04,-2,3,0,gha
0,0,0,0,0,0,115,0,-0.96,0.14,0.04,-2,2,0,gha
0,0,0,0,0,0,115,0,-0.96,0.14,0.04,-2,3,0,gha
0,0,0,0,0,0,115,0,-0.96,0.14,0.03,0,2,0,gha
0,0,0,0,0,0,115,0,-0.96,0.14,0.03,0,2,0,gha
0,0,0,0,0,0,115,0,-0.96,0.14,0.03,0,1,0,gha
0,0,0,0,0,0,115,0,-0.96,0.14,0.03,0,1,0,gha
0,0,0,0,0,0,115,0,-0.96,0.14,0.03,0,0,0,gha
0,0,0,0,0,0,115,0,-0.96,0.14,0.03,0,1,0,gha
0,0,0,0,0,0,115,0,-0.96,0.14,0.03,0,1,0,gha
0,0,0,0,0,0,115,0,-0.96,0.14,0.03,-1,1,0,gha
0,0,0,0,0,0,115,0,-0.96,0.14,0.04,-2,1,0,gha
0,0,0,0,0,0,115,0,-0.96,0.14,0.04,-2,1,0,gha
0,0,0,0,0,0,115,0,-0.96,0.14,0.04,-3,2,0,gha
0,0,0,0,0,0,115,0,-0.96,0.14,0.04,-3,1,0,gha
0,0,0,0,0,0,115,0,-0.96,0.15,0.04,-4,2,0,gha
0,0,0,0,0,0,115,0,-0.96,0.14,0.04,-4,2,0,gha
0,0,0,0,0,0,115,0,-0.96,0.14,0.04,-4,2,0,gha
0,0,0,0,0,0,115,0,-0.96,0.14,0.04,-3,2,0,gha
0,0,0,0,0,0,115,0,-0.96,0.14,0.04,-4,2,0,gha
0,0,0,0,0,0,117,0,-0.96,0.14,0.04,-3,2,0,gha
0,0,0,0,0,0,115,0,-0.96,0.14,0.05,-3,2,0,gha
0,0,0,0,0,0,115,0,-0.96,0.14,0.05,-3,2,0,gha
0,0,0,0,0,0,115,0,-0.96,0.14,0.05,-3,2,0,gha
0,0,0,0,0,0,115,0,-0.96,0.14,0.05,-3,2,0,gha
0,0,0,0,0,0,115,0,-0.96,0.14,0.05,-2,2,0,gha
0,0,0,0,0,0,115,0,-0.96,0.14,0.05,-2,2,0,gha
0,0,0,0,0,0,115,0,-0.96,0.14,0.05,-2,2,0,gha
0,0,0,0,0,0,115,0,-0.96,0.14,0.05,-2,2,0,gha
0,0,0,0,0,0,115,0,-0.96,0.14,0.05,-2,2,0,gha
0,0,0,0,0,0,115,0,-0.96,0.14,0.05,-2,2,0,gha
0,0,0,0,0,0,115,0,-0.96,0.14,0.05,-2,2,0,gha
0,0,0,0,0,0,115,0,-0.96,0.14,0.05,-2,2,0,gha
0,0,0,0,0,0,115,0,-0.96,0.14,0.05,-1,2,0,gha
0,0,0,0,0,0,115,0,-0.96,0.14,0.05,-1,2,0,gha
0,0,0,0,0,0,115,0,-0.96,0.14,0.05,-1,2,0,gha
0,0,0,0,0,0,115,0,-0.96,0.15,0.05,-1,2,0,gha
0,0,0,0,0,0,115,0,-0.96,0.14,0.05,-1,2,0,gha
0,0,0,0,0,0,115,0,-0.96,0.14,0.05,-2,2,0,gha
0,0,0,0,0,0,115,0,-0.96,0.15,0.05,-1,2,0,gha
0,0,0,0,0,0,115,0,-0.96,0.14,0.05,-1,2,0,gha
0,0,0,0,0,0,115,0,-0.96,0.14,0.05,-2,2,0,gha
0,0,0,0,0,0,115,0,-0.96,0.14,0.05,-2,2,0,gha
0,0,0,0,0,0,115,0,-0.96,0.14,0.05,-2,2,0,gha
0,0,0,0,0,0,115,0,-0.96,0.14,0.05,-2,2,0,gha
0,0,0,0,0,0,115,0,-0.96,0.14,0.05,-1,2,-1,gha
0,0,0,0,0,0,112,0,-0.96,0.14,0.05,-1,2,-1,gha
0,0,0,0,0,0,112,0,-0.96,0.14,0.05,-1,2,0,gha
0,0,0,0,0,0,112,0,-0.96,0.14,0.05,-1,2,0,gha
0,0,0,0,0,0,112,0,-0.96,0.14,0.05,-1,2,0,gha
0,0,0,0,0,0,112,0,-0.96,0.14,0.05,-2,2,0,gha
0,0,0,0,0,0,105,0,-0.96,0.14,0.05,-2,2,0,gha
0,0,0,0,0,0,105,0,-0.96,0.14,0.05,-1,2,0,gha
0,0,0,0,0,0,105,0,-0.96,0.14,0.05,-1,2,0,gha
0,0,0,0,0,0,105,0,-0.96,0.14,0.05,-1,2,0,gha
0,0,0,0,0,0,105,0,-0.96,0.14,0.05,-1,2,0,gha
0,0,0,0,0,0,105,0,-0.96,0.14,0.05,-1,2,0,gha
0,0,0,0,0,0,105,0,-0.96,0.14,0.05,-2,2,0,gha
0,0,0,0,0,0,105,0,-0.96,0.14,0.05,-2,1,0,gha
0,0,0,0,0,0,105,0,-0.96,0.14,0.06,-1,1,0,gha
0,0,0,0,0,0,105,0,-0.96,0.14,0.06,0,1,0,gha
0,0,0,0,0,0,112,0,-0.96,0.14,0.05,0,1,0,gha
0,0,0,0,0,0,115,0,-0.96,0.14,0.05,0,1,0,gha
0,0,0,0,0,0,115,0,-0.96,0.14,0.05,0,1,0,gha
0,0,0,0,0,0,115,0,-0.96,0.14,0.05,0,1,0,gha
0,0,0,0,0,0,115,0,-0.96,0.14,0.05,0,1,0,gha
0,0,0,0,0,0,115,0,-0.96,0.14,0.05,0,1,0,gha
0,0,0,0,0,0,115,0,-0.96,0.14,0.05,0,1,0,gha
0,0,0,0,0,0,115,0,-0.96,0.15,0.05,0,2,0,gha
0,0,0,0,0,0,115,0,-0.96,0.15,0.05,0,2,0,gha
0,0,0,0,0,0,115,0,-0.96,0.15,0.05,0,2,0,gha
0,0,0,0,0,0,115,0,-0.96,0.15,0.05,0,2,0,gha
0,0,0,0,0,0,112,0,-0.96,0.15,0.05,0,3,0,gha
0,0,0,0,0,0,112,0,-0.96,0.15,0.05,0,2,0,gha
0,0,0,0,0,0,112,0,-0.96,0.15,0.05,0,3,0,gha
0,0,0,0,0,0,112,0,-0.96,0.15,0.05,0,2,0,gha
0,0,0,0,0,0,112,0,-0.96,0.15,0.05,0,2,0,gha
0,0,0,0,0,0,112,0,-0.96,0.15,0.05,0,2,0,gha
0,0,0,0,0,0,112,0,-0.96,0.15,0.05,0,1,0,gha
0,0,0,0,0,0,112,0,-0.96,0.15,0.05,0,2,0,gha
0,0,0,0,0,0,112,0,-0.96,0.15,0.05,0,1,0,gha
0,0,0,0,0,0,112,0,-0.96,0.15,0.05,0,2,0,gha
0,0,0,0,0,0,112,0,-0.96,0.15,0.05,0,1,0,gha
0,0,0,0,0,0,112,0,-0.96,0.15,0.05,0,2,0,gha
0,0,0,0,0,0,112,0,-0.96,0.15,0.05,0,2,0,gha
0,0,0,0,0,0,112,0,-0.96,0.15,0.05,0,2,0,gha
0,0,0,0,0,0,112,0,-0.96,0.15,0.05,0,2,0,gha
0,0,0,0,0,0,112,0,-0.96,0.15,0.05,0,2,0,gha
0,0,0,0,0,0,112,0,-0.96,0.15,0.05,0,2,0,gha
0,0,0,0,0,0,112,0,-0.96,0.16,0.05,0,2,0,gha
0,0,0,0,0,0,112,0,-0.96,0.16,0.05,0,2,0,gha
0,0,0,0,0,0,112,0,-0.96,0.16,0.05,0,2,0,gha
0,0,0,0,0,0,112,0,-0.96,0.16,0.05,0,3,0,gha
0,0,0,0,0,0,115,0,-0.96,0.16,0.05,0,2,0,gha
0,0,0,0,0,0,115,0,-0.96,0.16,0.05,-1,2,0,gha
0,0,0,0,0,0,115,0,-0.96,0.16,0.05,-1,2,0,gha
0,0,0,0,0,0,103,0,-0.96,0.16,0.05,-2,2,0,gha
0,0,0,0,0,0,103,0,-0.96,0.16,0.05,-2,2,0,gha
0,0,0,0,0,0,103,0,-0.96,0.16,0.05,-2,2,0,gha
0,0,0,0,0,0,103,0,-0.96,0.15,0.05,-1,2,0,gha
0,0,0,0,0,0,103,0,-0.96,0.15,0.05,-2,2,0,gha
0,0,0,0,0,0,103,0,-0.96,0.15,0.05,-2,2,0,gha
0,0,0,0,0,0,103,0,-0.96,0.15,0.05,-2,2,0,gha
0,0,0,0,0,0,100,0,-0.96,0.15,0.05,-2,2,0,gha
0,0,0,0,0,0,100,0,-0.96,0.15,0.05,-2,2,0,gha
0,0,0,0,0,0,100,0,-0.96,0.15,0.05,-2,2,0,gha
0,0,0,0,0,0,112,0,-0.96,0.15,0.05,-1,2,0,gha
0,0,0,0,0,0,112,0,-0.96,0.15,0.05,-1,2,0,gha
0,0,0,0,0,0,110,0,-0.96,0.15,0.06,-1,2,0,gha
0,0,0,0,0,0,110,0,-0.96,0.15,0.05,-1,2,0,gha
0,0,0,0,0,0,110,0,-0.96,0.15,0.06,0,2,0,gha
0,0,0,0,0,0,110,0,-0.96,0.15,0.05,0,2,0,gha
0,0,0,0,0,0,110,0,-0.95,0.15,0.05,0,1,0,gha
0,0,0,0,0,0,110,0,-0.96,0.15,0.05,0,1,0,gha
0,0,0,0,0,0,110,0,-0.96,0.15,0.05,0,1,0,gha
0,0,0,0,0,0,110,0,-0.96,0.15,0.06,0,2,0,gha
0,0,0,0,0,0,110,0,-0.96,0.15,0.05,0,2,0,gha
0,0,0,0,0,0,110,0,-0.96,0.15,0.06,0,2,0,gha
0,0,0,0,0,0,112,0,-0.96,0.15,0.05,0,2,-1,gha
0,0,0,0,0,0,112,0,-0.96,0.15,0.05,-1,2,0,gha
0,0,0,0,0,0,112,0,-0.96,0.15,0.06,0,2,0,gha
0,0,0,0,0,0,112,0,-0.96,0.15,0.06,0,2,0,gha
0,0,0,0,0,0,112,0,-0.96,0.15,0.06,-1,2,0,gha
0,0,0,0,0,0,112,0,-0.96,0.15,0.06,-1,2,0,gha
0,0,0,0,0,0,112,0,-0.96,0.15,0.06,-1,2,0,gha
0,0,0,0,0,0,112,0,-0.96,0.15,0.06,-1,2,0,gha
0,0,0,0,0,0,112,0,-0.96,0.15,0.06,-1,2,0,gha
0,0,0,0,0,0,112,0,-0.96,0.15,0.06,-1,2,0,gha
0,0,0,0,0,0,112,0,-0.96,0.15,0.06,-1,2,0,gha
0,0,0,0,0,0,112,0,-0.96,0.15,0.06,-1,2,0,gha
0,0,0,0,0,0,112,0,-0.96,0.15,0.06,-1,2,0,gha
0,0,0,0,0,0,112,0,-0.96,0.15,0.06,-1,2,0,gha
0,0,0,0,0,0,112,0,-0.96,0.15,0.06,-1,2,0,gha
0,0,0,0,0,0,112,0,-0.96,0.15,0.06,-1,2,0,gha
0,0,0,0,0,0,115,0,-0.96,0.15,0.06,-1,2,0,gha
0,0,0,0,0,0,112,0,-0.96,0.15,0.06,-1,2,0,gha
0,0,0,0,0,0,112,0,-0.96,0.15,0.06,-1,2,0,gha
0,0,0,0,0,0,112,0,-0.96,0.15,0.06,-1,2,0,gha
0,0,0,0,0,0,112,0,-0.96,0.15,0.06,-2,2,0,gha
0,0,0,0,0,0,112,0,-0.96,0.15,0.06,-2,2,0,gha
0,0,0,0,0,0,112,0,-0.96,0.15,0.06,-1,2,0,gha
0,0,0,0,0,0,112,0,-0.96,0.15,0.06,-1,2,0,gha
0,0,0,0,0,0,112,0,-0.96,0.15,0.06,-1,2,0,gha
0,0,0,0,0,0,112,0,-0.96,0.15,0.06,-1,2,0,gha
0,0,0,0,0,0,112,0,-0.96,0.15,0.06,0,1,0,gha
0,0,0,0,0,0,112,0,-0.96,0.15,0.06,0,1,0,gha
0,0,0,0,0,0,112,0,-0.96,0.15,0.06,0,1,0,gha
0,0,0,0,0,0,112,0,-0.96,0.15,0.06,0,1,0,gha
0,0,0,0,0,0,112,0,-0.96,0.15,0.07,0,1,0,gha
0,0,0,0,0,0,112,0,-0.96,0.16,0.07,0,1,0,gha
0,0,0,0,0,0,112,0,-0.96,0.16,0.07,0,1,0,gha
0,0,0,0,0,0,112,0,-0.96,0.16,0.07,0,1,0,gha
0,0,0,0,0,0,112,0,-0.96,0.16,0.07,0,1,0,gha
0,0,0,0,0,0,112,0,-0.95,0.16,0.07,-1,1,0,gha
0,0,0,0,0,0,112,0,-0.96,0.16,0.07,-2,1,0,gha
0,0,0,0,0,0,115,0,-0.96,0.16,0.06,-2,1,0,gha
0,0,0,0,0,0,112,0,-0.96,0.16,0.06,-2,1,0,gha
0,0,0,0,0,0,115,0,-0.96,0.16,0.06,-2,1,0,gha
0,0,0,0,0,0,115,0,-0.96,0.16,0.06,-2,1,0,gha
0,0,0,0,0,0,115,0,-0.96,0.16,0.06,-2,2,0,gha
0,0,0,0,0,0,115,0,-0.96,0.16,0.06,-2,2,0,gha
0,0,0,0,0,0,115,0,-0.96,0.15,0.06,-2,2,0,gha
0,0,0,0,0,0,115,0,-0.96,0.15,0.06,-2,2,0,gha
0,0,0,0,0,0,115,0,-0.96,0.15,0.06,-1,2,0,gha
0,0,0,0,0,0,115,0,-0.96,0.15,0.07,0,2,0,gha
0,0,0,0,0,0,115,0,-0.96,0.15,0.06,0,2,0,gha
0,0,0,0,0,0,115,0,-0.96,0.16,0.06,0,2,0,gha
0,0,0,0,0,0,115,0,-0.96,0.16,0.06,0,2,0,gha
0,0,0,0,0,0,112,0,-0.96,0.16,0.06,0,2,0,gha
0,0,0,0,0,0,112,0,-0.96,0.16,0.06,-1,2,0,gha
0,0,0,0,0,0,112,0,-0.96,0.16,0.06,-1,2,0,gha
0,0,0,0,0,0,112,0,-0.96,0.16,0.07,-1,1,0,gha
0,0,0,0,0,0,112,0,-0.96,0.16,0.07,-2,1,0,gha
0,0,0,0,0,0,112,0,-0.96,0.16,0.07,-2,1,0,gha
0,0,0,0,0,0,112,0,-0.96,0.16,0.07,-3,1,0,gha
0,0,0,0,0,0,112,0,-0.96,0.16,0.08,-3,1,0,gha
0,0,0,0,0,0,112,0,-0.96,0.15,0.08,-2,1,0,gha
0,0,0,0,0,0,112,0,-0.96,0.15,0.08,-2,2,0,gha
0,0,0,0,0,0,112,0,-0.96,0.16,0.08,-1,2,0,gha
0,0,0,0,0,0,112,0,-0.96,0.16,0.08,-2,3,0,gha
0,0,0,0,0,0,112,0,-0.96,0.16,0.07,-2,3,0,gha
0,0,0,0,0,0,112,0,-0.96,0.16,0.07,-2,3,0,gha
0,0,0,0,0,0,112,0,-0.96,0.16,0.07,-2,3,0,gha
0,0,0,0,0,0,112,0,-0.96,0.16,0.07,-2,4,0,gha
0,0,0,0,0,0,112,0,-0.96,0.16,0.07,-2,4,0,gha
0,0,0,0,0,0,112,0,-0.96,0.16,0.07,-2,4,0,gha
0,0,0,0,0,0,112,0,-0.96,0.16,0.06,-2,4,0,gha
0,0,0,0,0,0,112,0,-0.96,0.16,0.06,-2,4,0,gha
0,0,0,0,0,0,112,0,-0.96,0.16,0.06,-2,3,0,gha
0,0,0,0,0,0,112,0,-0.96,0.16,0.06,-2,3,0,gha
0,0,0,0,0,0,112,0,-0.96,0.16,0.06,-1,3,0,gha
0,0,0,0,0,0,112,0,-0.95,0.17,0.06,0,3,0,gha
0,0,0,0,0,0,112,0,-0.96,0.17,0.06,0,3,-1,gha
0,0,0,0,0,0,112,0,-0.96,0.16,0.06,0,3,0,gha
0,0,0,0,0,0,112,0,-0.96,0.16,0.06,0,4,0,gha
0,0,0,0,0,0,112,0,-0.96,0.16,0.05,-1,4,0,gha
0,0,0,0,0,0,110,0,-0.96,0.16,0.05,-2,3,0,gha
0,0,0,0,0,0,110,0,-0.96,0.16,0.05,-1,3,0,gha
0,0,0,0,0,0,110,0,-0.96,0.16,0.05,-1,3,0,gha
0,0,0,0,0,0,110,0,-0.96,0.16,0.05,-1,3,0,gha
0,0,0,0,0,0,110,0,-0.96,0.16,0.05,-2,2,0,gha
0,0,0,0,0,0,110,0,-0.96,0.16,0.05,-2,2,0,gha
0,0,0,0,0,0,110,0,-0.96,0.16,0.05,-1,2,1,gha
0,0,0,0,0,0,110,0,-0.96,0.16,0.05,-1,2,0,gha
0,0,0,0,0,0,110,0,-0.96,0.16,0.05,-1,1,0,gha
0,0,0,0,0,0,110,0,-0.96,0.16,0.05,0,1,0,gha
0,0,0,0,0,0,110,0,-0.96,0.17,0.05,-1,1,0,gha
0,0,0,0,0,0,110,0,-0.96,0.17,0.05,-2,1,0,gha
0,0,0,0,0,0,115,0,-0.96,0.17,0.05,-2,1,0,gha
0,0,0,0,0,0,115,0,-0.96,0.17,0.05,-2,1,-1,gha
0,0,0,0,0,0,115,0,-0.96,0.17,0.05,-2,1,-1,gha
0,0,0,0,0,0,115,0,-0.96,0.17,0.05,-2,1,-2,gha
0,0,0,0,0,0,115,0,-0.96,0.16,0.05,-3,1,-2,gha
0,0,0,0,0,0,115,0,-0.96,0.16,0.06,-3,1,-2,gha
0,0,0,0,0,0,115,0,-0.96,0.16,0.06,-2,1,-2,gha
0,0,0,0,0,0,115,0,-0.96,0.16,0.06,-2,1,-2,gha
0,0,0,0,0,0,115,0,-0.96,0.16,0.06,-2,1,-2,gha
0,0,0,0,0,0,115,0,-0.95,0.16,0.07,-1,1,-2,gha
0,0,0,0,0,0,110,0,-0.96,0.16,0.07,-1,1,-1,gha
0,0,0,0,0,0,110,0,-0.96,0.16,0.07,-1,1,-1,gha
0,0,0,0,0,0,110,0,-0.96,0.16,0.07,-1,0,-1,gha
0,0,0,0,0,0,108,0,-0.96,0.15,0.07,-2,0,0,gha
0,0,0,0,0,0,110,0,-0.95,0.16,0.07,-2,0,0,gha
0,0,0,0,0,0,110,0,-0.96,0.16,0.07,-2,0,0,gha
0,0,0,0,0,0,110,0,-0.96,0.15,0.08,-2,0,0,gha
0,0,0,0,0,0,110,0,-0.96,0.15,0.08,-2,1,0,gha
0,0,0,0,0,0,110,0,-0.96,0.15,0.08,-2,1,0,gha
0,0,0,0,0,0,110,0,-0.96,0.15,0.08,-1,1,0,gha
0,0,0,0,0,0,112,0,-0.96,0.15,0.08,-1,1,0,gha
0,0,0,0,0,0,110,0,-0.96,0.16,0.08,-1,1,0,gha
0,0,0,0,0,0,110,0,-0.96,0.16,0.08,-1,2,0,gha
0,0,0,0,0,0,112,0,-0.96,0.16,0.08,-1,2,0,gha
0,0,0,0,0,0,110,0,-0.96,0.16,0.08,-1,2,0,gha
0,0,0,0,0,0,110,0,-0.96,0.16,0.08,-1,2,0,gha
0,0,0,0,0,0,110,0,-0.96,0.16,0.08,-1,2,0,gha
0,0,0,0,0,0,110,0,-0.96,0.16,0.08,-2,2,0,gha
0,0,0,0,0,0,110,0,-0.96,0.16,0.08,-2,2,0,gha
0,0,0,0,0,0,110,0,-0.96,0.16,0.08,-2,2,0,gha
0,0,0,0,0,0,110,0,-0.96,0.16,0.08,-2,2,0,gha
0,0,0,0,0,0,110,0,-0.96,0.16,0.08,-2,2,0,gha
0,0,0,0,0,0,110,0,-0.96,0.16,0.08,-2,2,0,gha
0,0,0,0,0,0,110,0,-0.96,0.16,0.08,-2,2,0,gha
0,0,0,0,0,0,110,0,-0.96,0.16,0.08,-1,2,0,gha
0,0,0,0,0,0,110,0,-0.96,0.16,0.08,-1,2,0,gha
0,0,0,0,0,0,110,0,-0.96,0.16,0.08,-1,2,0,gha
0,0,0,0,0,0,110,0,-0.96,0.16,0.08,-1,2,0,gha
0,0,0,0,0,0,110,0,-0.96,0.16,0.08,-1,2,0,gha
0,0,0,0,0,0,110,0,-0.96,0.16,0.08,-1,2,0,gha
0,0,0,0,0,0,110,0,-0.96,0.16,0.08,-1,2,0,gha
0,0,0,0,0,0,110,0,-0.96,0.16,0.08,-1,2,0,gha
0,0,0,0,0,0,110,0,-0.96,0.16,0.08,-2,2,0,gha
0,0,0,0,0,0,110,0,-0.96,0.16,0.08,-2,2,0,gha
0,0,0,0,0,0,110,0,-0.96,0.16,0.08,-1,1,0,gha
0,0,0,0,0,0,110,0,-0.96,0.16,0.08,-1,2,0,gha
0,0,0,0,0,0,110,0,-0.96,0.16,0.08,-1,2,0,gha
0,0,0,0,0,0,110,0,-0.95,0.16,0.08,-1,2,0,gha
0,0,0,0,0,0,110,0,-0.96,0.16,0.08,0,2,0,gha
0,0,0,0,0,0,110,0,-0.96,0.16,0.08,0,2,0,gha
0,0,0,0,0,0,110,0,-0.96,0.16,0.08,-1,2,0,gha
0,0,0,0,0,0,112,0,-0.96,0.16,0.08,-1,1,0,gha
0,0,0,0,0,0,112,0,-0.96,0.16,0.08,-1,2,0,gha
0,0,0,0,0,0,112,0,-0.95,0.16,0.08,0,1,0,gha
0,0,0,0,0,0,112,0,-0.95,0.16,0.08,0,2,0,gha
0,0,0,0,0,0,112,0,-0.95,0.16,0.08,0,2,0,gha
0,0,0,0,0,0,112,0,-0.95,0.16,0.08,0,2,0,gha
0,0,0,0,0,0,112,0,-0.95,0.16,0.08,0,2,0,gha
0,0,0,0,0,0,112,0,-0.95,0.16,0.08,0,2,0,gha
0,0,0,0,0,0,112,0,-0.95,0.16,0.08,0,2,-1,gha
0,0,0,0,0,0,112,0,-0.95,0.16,0.08,0,2,-1,gha
0,0,0,0,0,0,112,0,-0.95,0.16,0.08,1,2,0,gha
0,0,0,0,0,0,112,0,-0.95,0.16,0.08,1,2,0,gha
0,0,0,0,0,0,112,0,-0.96,0.16,0.07,0,2,0,gha
0,0,0,0,0,0,112,0,-0.96,0.16,0.07,0,2,0,gha
0,0,0,0,0,0,112,0,-0.96,0.16,0.07,0,2,0,gha
0,0,0,0,0,0,110,0,-0.96,0.16,0.07,1,1,0,gha
0,0,0,0,0,0,112,0,-0.96,0.16,0.08,0,1,0,gha
0,0,0,0,0,0,110,0,-0.96,0.16,0.08,1,2,0,gha
0,0,0,0,0,0,110,0,-0.96,0.16,0.08,0,2,0,gha
0,0,0,0,0,0,110,0,-0.96,0.16,0.08,0,2,0,gha
0,0,0,0,0,0,110,0,-0.95,0.16,0.08,0,2,0,gha
0,0,0,0,0,0,110,0,-0.96,0.16,0.08,0,2,0,gha
0,0,0,0,0,0,110,0,-0.95,0.16,0.08,0,3,0,gha
0,0,0,0,0,0,110,0,-0.96,0.17,0.07,0,3,0,gha
0,0,0,0,0,0,110,0,-0.95,0.16,0.07,0,3,0,gha
0,0,0,0,0,0,108,0,-0.95,0.16,0.07,0,3,0,gha
0,0,0,0,0,0,108,0,-0.95,0.16,0.07,0,3,0,gha
0,0,0,0,0,0,108,0,-0.95,0.16,0.07,0,3,0,gha
0,0,0,0,0,0,110,0,-0.95,0.16,0.07,0,3,0,gha
0,0,0,0,0,0,108,0,-0.96,0.16,0.07,0,3,0,gha
0,0,0,0,0,0,108,0,-0.96,0.17,0.07,0,3,0,gha
0,0,0,0,0,0,108,0,-0.96,0.17,0.07,0,3,0,gha
0,0,0,0,0,0,108,0,-0.95,0.17,0.07,0,2,0,gha
0,0,0,0,0,0,108,0,-0.95,0.17,0.07,0,2,0,gha
0,0,0,0,0,0,108,0,-0.95,0.17,0.07,0,2,0,gha
0,0,0,0,0,0,108,0,-0.96,0.17,0.07,-1,2,0,gha
0,0,0,0,0,0,108,0,-0.96,0.17,0.07,-1,2,0,gha
0,0,0,0,0,0,108,0,-0.95,0.17,0.07,-1,2,0,gha
0,0,0,0,0,0,108,0,-0.95,0.17,0.07,-2,1,0,gha
0,0,0,0,0,0,108,0,-0.95,0.17,0.07,-2,1,0,gha
0,0,0,0,0,0,108,0,-0.95,0.17,0.07,-2,1,0,gha
0,0,0,0,0,0,108,0,-0.95,0.17,0.07,-3,1,0,gha
0,0,0,0,0,0,108,0,-0.96,0.17,0.07,-3,1,0,gha
0,0,0,0,0,0,108,0,-0.96,0.17,0.07,-3,1,-1,gha
0,0,0,0,0,0,108,0,-0.96,0.17,0.07,-3,1,-1,gha
0,0,0,0,0,0,108,0,-0.96,0.17,0.07,-3,2,-1,gha
0,0,0,0,0,0,108,0,-0.96,0.17,0.07,-3,2,0,gha
0,0,0,0,0,0,108,0,-0.95,0.17,0.07,-3,2,0,gha
0,0,0,0,0,0,108,0,-0.96,0.17,0.08,-3,2,0,gha
0,0,0,0,0,0,108,0,-0.95,0.17,0.08,-2,1,0,gha
0,0,0,0,0,0,108,0,-0.95,0.17,0.08,-2,1,0,gha
0,0,0,0,0,0,105,0,-0.95,0.17,0.08,-2,1,0,gha
0,0,0,0,0,0,108,0,-0.95,0.17,0.08,-2,1,0,gha
0,0,0,0,0,0,108,0,-0.95,0.17,0.08,-2,1,0,gha
0,0,0,0,0,0,108,0,-0.95,0.17,0.08,-2,1,0,gha
0,0,0,0,0,0,108,0,-0.95,0.17,0.08,-2,1,0,gha
0,0,0,0,0,0,108,0,-0.96,0.17,0.08,-2,1,0,gha
0,0,0,0,0,0,108,0,-0.96,0.17,0.08,-1,1,0,gha
0,0,0,0,0,0,105,0,-0.95,0.17,0.08,-1,1,0,gha
0,0,0,0,0,0,105,0,-0.96,0.17,0.08,-1,1,0,gha
0,0,0,0,0,0,103,0,-0.96,0.17,0.08,-2,2,0,gha
0,0,0,0,0,0,103,0,-0.96,0.17,0.08,-2,2,0,gha
0,0,0,0,0,0,103,0,-0.95,0.17,0.08,-2,2,0,gha
0,0,0,0,0,0,103,0,-0.95,0.17,0.08,-2,2,0,gha
0,0,0,0,0,0,103,0,-0.95,0.17,0.08,-2,2,0,gha
0,0,0,0,0,0,103,0,-0.95,0.17,0.08,-2,1,0,gha
0,0,0,0,0,0,103,0,-0.95,0.17,0.08,-2,1,0,gha
0,0,0,0,0,0,100,0,-0.95,0.17,0.08,-2,1,0,gha
0,0,0,0,0,0,103,0,-0.95,0.17,0.08,-2,2,0,gha
0,0,0,0,0,0,103,0,-0.95,0.16,0.08,-2,2,0,gha
0,0,0,0,0,0,103,0,-0.95,0.16,0.08,-2,2,0,gha
0,0,0,0,0,0,103,0,-0.95,0.16,0.08,-1,2,0,gha
0,0,0,0,0,0,103,0,-0.96,0.16,0.08,0,2,0,gha
0,0,0,0,0,0,103,0,-0.96,0.17,0.08,-1,2,0,gha
0,0,0,0,0,0,103,0,-0.95,0.17,0.08,-1,2,0,gha
0,0,0,0,0,0,100,0,-0.95,0.17,0.08,0,2,0,gha
0,0,0,0,0,0,103,0,-0.95,0.17,0.08,-1,2,0,gha
0,0,0,0,0,0,103,0,-0.95,0.17,0.08,-1,2,0,gha
0,0,0,0,0,0,100,0,-0.95,0.17,0.08,-1,1,0,gha
0,0,0,0,0,0,103,0,-0.95,0.17,0.08,-1,2,0,gha
0,0,0,0,0,0,103,0,-0.96,0.17,0.08,-1,2,0,gha
0,0,0,0,0,0,103,0,-0.95,0.17,0.08,-1,2,0,gha
0,0,0,0,0,0,100,0,-0.95,0.17,0.08,-1,2,0,gha
0,0,0,0,0,0,100,0,-0.95,0.17,0.08,-1,2,0,gha
0,0,0,0,0,0,103,0,-0.95,0.17,0.08,-1,2,0,gha
0,0,0,0,0,0,103,0,-0.96,0.17,0.08,-1,2,0,gha
0,0,0,0,0,0,100,0,-0.96,0.17,0.08,-1,2,0,gha
0,0,0,0,0,0,103,0,-0.96,0.17,0.08,-1,2,0,gha
0,0,0,0,0,0,103,0,-0.96,0.17,0.08,-1,2,0,gha
0,0,0,0,0,0,103,0,-0.96,0.17,0.08,-1,2,0,gha
0,0,0,0,0,0,103,0,-0.95,0.17,0.08,-1,2,0,gha
0,0,0,0,0,0,103,0,-0.95,0.17,0.08,-1,2,0,gha
0,0,0,0,0,0,103,0,-0.96,0.17,0.09,-1,2,0,gha
0,0,0,0,0,0,103,0,-0.95,0.17,0.09,-1,2,0,gha
0,0,0,0,0,0,103,0,-0.96,0.17,0.09,-1,2,0,gha
0,0,0,0,0,0,103,0,-0.95,0.17,0.09,-1,2,0,gha
0,0,0,0,0,0,103,0,-0.95,0.17,0.09,-1,2,0,gha
0,0,0,0,0,0,103,0,-0.95,0.17,0.09,-1,2,0,gha
0,0,0,0,0,0,103,0,-0.95,0.17,0.09,-1,2,0,gha
0,0,0,0,0,0,103,0,-0.95,0.17,0.09,-1,2,0,gha
0,0,0,0,0,0,100,0,-0.95,0.17,0.09,-1,2,0,gha
0,0,0,0,0,0,100,0,-0.95,0.17,0.09,-1,2,0,gha
0,0,0,0,0,0,100,0,-0.95,0.17,0.09,-1,2,0,gha
0,0,0,0,0,0,103,0,-0.95,0.17,0.09,0,2,0,gha
0,0,0,0,0,0,103,0,-0.95,0.17,0.09,0,2,0,gha
0,0,0,0,0,0,103,0,-0.95,0.17,0.09,0,1,0,gha
0,0,0,0,0,0,100,0,-0.95,0.17,0.09,0,1,0,gha
0,0,0,0,0,0,100,0,-0.95,0.17,0.09,0,2,0,gha
0,0,0,0,0,0,103,0,-0.95,0.17,0.09,-1,2,0,gha
0,0,0,0,0,0,105,0,-0.95,0.17,0.09,-1,2,0,gha
0,0,0,0,0,0,105,0,-0.95,0.17,0.09,0,2,0,gha
0,0,0,0,0,0,105,0,-0.95,0.17,0.09,-1,2,0,gha
0,0,0,0,0,0,105,0,-0.95,0.17,0.09,-1,2,0,gha
0,0,0,0,0,0,108,0,-0.95,0.17,0.09,0,2,0,gha
0,0,0,0,0,0,108,0,-0.95,0.17,0.09,0,2,0,gha
0,0,0,0,0,0,108,0,-0.95,0.17,0.09,0,2,0,gha
0,0,0,0,0,0,108,0,-0.95,0.17,0.08,0,2,0,gha
0,0,0,0,0,0,108,0,-0.95,0.17,0.08,0,2,0,gha
0,0,0,0,0,0,108,0,-0.95,0.17,0.08,0,2,0,gha
0,0,0,0,0,0,105,0,-0.95,0.17,0.08,0,2,0,gha
0,0,0,0,0,0,105,0,-0.95,0.17,0.08,0,2,0,gha
0,0,0,0,0,0,105,0,-0.95,0.17,0.08,0,2,0,gha
0,0,0,0,0,0,105,0,-0.95,0.17,0.08,0,2,0,gha
0,0,0,0,0,0,105,0,-0.96,0.17,0.08,0,2,0,gha
0,0,0,0,0,0,105,0,-0.96,0.17,0.08,0,2,0,gha
0,0,0,0,0,0,103,0,-0.95,0.17,0.08,-1,2,0,gha
0,0,0,0,0,0,105,0,-0.96,0.17,0.09,-1,2,0,gha
0,0,0,0,0,0,103,0,-0.96,0.17,0.08,-1,2,0,gha
0,0,0,0,0,0,105,0,-0.96,0.17,0.08,-2,2,0,gha
0,0,0,0,0,0,105,0,-0.96,0.17,0.08,-2,2,-1,gha
0,0,0,0,0,0,103,0,-0.95,0.17,0.09,-2,2,-1,gha
0,0,0,0,0,0,103,0,-0.95,0.17,0.09,-2,2,-1,gha
0,0,0,0,0,0,103,0,-0.95,0.17,0.09,-2,2,-1,gha
0,0,0,0,0,0,103,0,-0.95,0.17,0.09,-2,3,-1,gha
0,0,0,0,0,0,103,0,-0.96,0.17,0.09,-2,3,-1,gha
0,0,0,0,0,0,103,0,-0.96,0.17,0.09,-2,2,-1,gha
0,0,0,0,0,0,103,0,-0.95,0.17,0.09,-2,2,0,gha
0,0,0,0,0,0,103,0,-0.95,0.17,0.08,-2,2,0,gha
0,0,0,0,0,0,103,0,-0.95,0.17,0.09,-2,2,0,gha
0,0,0,0,0,0,103,0,-0.95,0.17,0.09,-2,2,0,gha
0,0,0,0,0,0,103,0,-0.95,0.17,0.09,-2,1,0,gha
0,0,0,0,0,0,103,0,-0.96,0.17,0.09,-2,1,0,gha
0,0,0,0,0,0,103,0,-0.96,0.17,0.09,-2,1,0,gha
0,0,0,0,0,0,103,0,-0.96,0.17,0.09,-1,1,0,gha
0,0,0,0,0,0,103,0,-0.96,0.17,0.09,-2,1,0,gha
0,0,0,0,0,0,103,0,-0.95,0.17,0.09,-2,1,0,gha
0,0,0,0,0,0,103,0,-0.96,0.17,0.09,-2,1,0,gha
0,0,0,0,0,0,100,0,-0.96,0.17,0.09,-2,1,-1,gha
0,0,0,0,0,0,100,0,-0.96,0.17,0.09,-2,1,0,gha
0,0,0,0,0,0,100,0,-0.96,0.17,0.09,-2,1,-1,gha
0,0,0,0,0,0,103,0,-0.96,0.17,0.09,-2,2,0,gha
0,0,0,0,0,0,103,0,-0.96,0.17,0.09,-2,2,0,gha
0,0,0,0,0,0,103,0,-0.96,0.17,0.09,-2,2,0,gha
0,0,0,0,0,0,103,0,-0.95,0.17,0.09,-2,2,0,gha
0,0,0,0,0,0,103,0,-0.96,0.17,0.1,-2,2,0,gha
0,0,0,0,0,0,105,0,-0.96,0.17,0.09,-2,3,0,gha
0,0,0,0,0,0,105,0,-0.96,0.17,0.09,-2,2,0,gha
0,0,0,0,0,0,105,0,-0.96,0.16,0.09,-2,2,0,gha
0,0,0,0,0,0,105,0,-0.95,0.16,0.09,-2,2,0,gha
0,0,0,0,0,0,105,0,-0.96,0.16,0.09,-2,3,0,gha
0,0,0,0,0,0,105,0,-0.96,0.16,0.09,-2,3,0,gha
0,0,0,0,0,0,108,0,-0.96,0.16,0.09,-2,3,0,gha
0,0,0,0,0,0,108,0,-0.96,0.16,0.09,-2,2,0,gha
0,0,0,0,0,0,108,0,-0.95,0.16,0.09,-1,2,0,gha
0,0,0,0,0,0,108,0,-0.95,0.16,0.09,-1,2,0,gha
0,0,0,0,0,0,108,0,-0.95,0.17,0.09,-1,2,0,gha
0,0,0,0,0,0,105,0,-0.96,0.17,0.09,-1,3,0,gha
0,0,0,0,0,0,105,0,-0.95,0.17,0.09,-1,3,0,gha
0,0,0,0,0,0,105,0,-0.95,0.17,0.09,-1,2,0,gha
0,0,0,0,0,0,105,0,-0.95,0.17,0.09,-1,2,0,gha
0,0,0,0,0,0,105,0,-0.95,0.17,0.09,-2,2,0,gha
0,0,0,0,0,0,105,0,-0.95,0.17,0.09,-2,2,0,gha
0,0,0,0,0,0,105,0,-0.95,0.17,0.09,-2,2,0,gha
0,0,0,0,0,0,105,0,-0.95,0.17,0.09,-2,2,0,gha
0,0,0,0,0,0,103,0,-0.95,0.17,0.09,-2,2,0,gha
0,0,0,0,0,0,105,0,-0.95,0.17,0.09,-3,2,0,gha
0,0,0,0,0,0,105,0,-0.95,0.17,0.09,-4,2,0,gha
0,0,0,0,0,0,103,0,-0.95,0.17,0.09,-6,2,-1,gha
0,0,0,0,0,0,103,0,-0.95,0.17,0.09,-6,1,-2,gha
169,42,174,115,357,113,0,37,-0.95,0.22,-0.01,-2,1,-2,nga
166,42,172,114,345,103,0,15,-0.95,0.22,0,-4,2,-1,nga
166,42,171,112,334,97,0,5,-0.94,0.21,0.01,-5,1,0,nga
166,42,170,110,308,86,0,0,-0.94,0.21,0.01,-6,0,0,nga
166,42,169,108,294,79,0,0,-0.95,0.21,0,-9,3,0,nga
166,42,168,107,282,74,0,0,-0.95,0.21,0,-12,4,-1,nga
162,42,167,105,260,62,0,0,-0.95,0.22,-0.01,-14,6,-1,nga
162,42,166,104,237,50,0,0,-0.94,0.22,-0.01,-17,7,-2,nga
162,42,164,103,222,45,0,0,-0.93,0.23,-0.02,-19,8,-2,nga
162,42,163,102,214,39,0,0,-0.93,0.24,-0.03,-21,6,-2,nga
162,42,163,101,211,37,0,0,-0.93,0.24,-0.03,-21,5,-3,nga
162,42,162,101,208,37,0,0,-0.94,0.24,-0.03,-19,6,-4,nga
159,42,162,101,208,37,0,0,-0.94,0.23,-0.03,-20,5,-3,nga
159,42,162,101,208,36,0,0,-0.95,0.23,-0.02,-20,4,-3,nga
159,40,162,101,208,37,0,0,-0.95,0.22,-0.01,-18,0,-3,nga
159,40,162,101,208,36,0,0,-0.95,0.21,-0.01,-16,1,0,nga
159,40,162,100,205,36,0,0,-0.95,0.21,0.01,-15,0,0,nga
159,42,162,100,205,36,0,0,-0.96,0.2,0.02,-13,0,0,nga
159,40,162,100,205,36,0,0,-0.96,0.18,0.03,-12,0,1,nga
159,42,161,100,205,34,0,0,-0.96,0.18,0.04,-12,2,1,nga
159,40,161,100,205,34,0,0,-0.96,0.18,0.05,-12,3,2,nga
155,42,161,100,205,34,0,0,-0.95,0.19,0.05,-15,3,2,nga
155,42,161,101,205,34,0,0,-0.95,0.19,0.04,-14,4,2,nga
155,42,161,101,205,34,0,0,-0.95,0.2,0.04,-14,6,2,nga
155,42,161,100,205,34,0,0,-0.94,0.2,0.04,-14,8,2,nga
155,40,161,100,205,34,0,0,-0.94,0.21,0.03,-15,7,1,nga
155,46,161,100,205,34,0,0,-0.94,0.21,0.03,-13,7,0,nga
155,46,161,100,205,34,0,0,-0.95,0.22,0.02,-12,5,0,nga
155,46,161,100,205,34,0,0,-0.95,0.22,0.02,-11,5,0,nga
155,44,161,100,202,34,0,0,-0.95,0.22,0.02,-10,5,1,nga
155,46,161,99,202,34,0,0,-0.95,0.22,0.02,-8,4,1,nga
155,46,161,99,202,33,0,0,-0.95,0.22,0.02,-6,3,1,nga
152,46,161,99,202,33,0,0,-0.94,0.22,0.02,-6,3,0,nga
152,46,161,98,202,33,0,0,-0.94,0.22,0.02,-5,2,0,nga
149,46,161,98,202,33,0,0,-0.95,0.22,0.02,-4,2,0,nga
149,46,161,98,200,31,0,0,-0.95,0.22,0.02,-2,2,0,nga
149,42,161,97,200,31,0,0,-0.95,0.21,0.02,-2,2,0,nga
149,40,161,96,200,31,0,0,-0.94,0.21,0.03,0,2,1,nga
145,40,161,95,202,30,0,0,-0.94,0.21,0.02,0,3,0,nga
145,40,161,93,205,30,0,0,-0.94,0.21,0.02,-1,4,0,nga
145,38,161,92,202,30,0,0,-0.94,0.22,0.02,-2,4,0,nga
145,38,161,90,202,28,0,0,-0.94,0.22,0.02,-2,4,0,nga
145,36,161,89,202,28,0,0,-0.94,0.22,0.02,0,4,1,nga
145,36,161,87,202,28,0,0,-0.94,0.22,0.01,0,4,1,nga
145,36,161,85,202,27,0,0,-0.94,0.21,0.01,0,4,1,nga
142,36,161,84,202,27,0,0,-0.94,0.22,0.01,0,5,2,nga
142,34,160,82,202,27,0,0,-0.94,0.22,0.01,0,5,1,nga
142,34,160,82,202,27,0,0,-0.94,0.23,0,-1,5,0,nga
142,34,160,81,200,27,0,0,-0.94,0.23,0,-2,5,0,nga
142,34,160,81,197,27,0,0,-0.94,0.24,0,0,5,0,nga
142,34,160,81,197,25,0,0,-0.94,0.24,0,0,5,0,nga
138,34,160,81,197,25,0,0,-0.94,0.24,-0.01,0,5,0,nga
138,34,160,81,197,27,0,0,-0.94,0.23,-0.01,-1,5,0,nga
138,32,159,81,197,25,0,0,-0.94,0.24,-0.01,-2,6,-1,nga
138,32,159,81,197,25,0,0,-0.94,0.24,-0.02,-1,6,-2,nga
138,32,159,80,194,25,0,0,-0.94,0.24,-0.02,-3,6,-2,nga
135,32,159,80,194,25,0,0,-0.95,0.23,-0.02,-3,5,-2,nga
135,32,159,80,194,25,0,0,-0.95,0.23,-0.03,-2,5,-1,nga
135,32,159,80,194,25,0,0,-0.94,0.23,-0.03,-3,5,0,nga
135,32,159,80,194,25,0,0,-0.94,0.22,-0.03,-3,4,0,nga
135,30,159,79,191,25,0,0,-0.94,0.22,-0.03,-2,5,0,nga
135,30,159,79,191,25,0,0,-0.94,0.22,-0.04,-3,4,0,nga
135,30,158,79,191,25,0,0,-0.94,0.23,-0.04,-3,3,0,nga
135,30,158,79,191,25,0,0,-0.94,0.23,-0.04,-2,3,0,nga
135,30,158,79,191,25,0,0,-0.94,0.22,-0.04,-3,2,0,nga
135,30,158,79,191,25,0,0,-0.94,0.23,-0.03,-3,2,0,nga
135,30,158,79,194,25,0,0,-0.94,0.23,-0.03,-3,1,0,nga
135,30,158,80,194,25,0,0,-0.94,0.23,-0.03,-3,1,0,nga
135,30,158,79,194,25,0,0,-0.94,0.23,-0.03,-3,1,0,nga
135,30,158,80,194,25,0,0,-0.94,0.23,-0.03,-3,0,0,nga
135,30,158,80,194,25,0,0,-0.94,0.23,-0.03,-3,0,0,nga
135,30,157,80,194,27,0,0,-0.94,0.23,-0.02,-3,0,0,nga
135,30,158,81,194,27,0,0,-0.94,0.23,-0.02,-3,1,0,nga
135,30,158,81,194,27,0,0,-0.95,0.23,-0.02,-3,1,0,nga
135,32,157,81,194,27,0,0,-0.94,0.23,-0.02,-2,1,0,nga
135,32,157,81,194,27,0,0,-0.94,0.23,-0.02,-2,1,0,nga
135,32,157,81,191,27,0,0,-0.94,0.23,-0.02,-3,1,0,nga
135,32,157,82,191,27,0,0,-0.94,0.23,-0.02,-2,1,0,nga
132,32,157,82,191,27,0,0,-0.94,0.23,-0.02,-2,2,0,nga
135,32,157,81,194,27,0,0,-0.94,0.23,-0.02,-1,2,0,nga
132,32,157,81,191,27,0,0,-0.94,0.23,-0.02,0,1,0,nga
135,32,157,82,191,27,0,0,-0.94,0.24,-0.02,0,1,0,nga
135,32,157,81,191,27,0,0,-0.94,0.24,-0.02,0,1,0,nga
135,32,157,81,191,25,0,0,-0.94,0.24,-0.02,0,1,0,nga
135,32,156,82,191,25,0,0,-0.94,0.24,-0.02,0,1,0,nga
135,32,157,82,191,25,0,0,-0.94,0.24,-0.02,0,1,0,nga
135,32,156,81,191,25,0,0,-0.94,0.24,-0.02,0,2,0,nga
135,32,156,81,191,25,0,0,-0.94,0.24,-0.02,0,2,0,nga
135,32,156,81,191,25,0,0,-0.94,0.24,-0.01,-1,2,0,nga
135,32,157,81,188,25,0,0,-0.94,0.24,-0.01,0,2,0,nga
135,32,157,80,188,25,0,0,-0.94,0.24,-0.01,-2,2,0,nga
132,32,157,80,188,25,0,0,-0.94,0.24,-0.01,-1,2,1,nga
132,32,156,80,188,25,0,0,-0.94,0.24,-0.01,-2,2,1,nga
132,32,157,80,188,25,0,0,-0.94,0.24,-0.01,-1,1,1,nga
128,32,157,79,188,25,0,0,-0.94,0.24,-0.01,-1,2,1,nga
128,30,157,79,188,24,0,0,-0.94,0.24,-0.01,0,2,1,nga
128,30,157,79,188,24,0,0,-0.94,0.24,-0.01,0,2,0,nga
128,30,157,78,188,24,0,0,-0.94,0.25,-0.01,0,2,1,nga
125,30,157,78,188,24,0,0,-0.94,0.25,-0.01,-1,1,1,nga
125,30,157,78,188,24,0,0,-0.94,0.25,-0.01,-2,1,1,nga
125,30,156,78,188,24,0,0,-0.94,0.25,-0.01,-2,1,2,nga
125,30,156,78,188,22,0,0,-0.94,0.25,-0.01,-2,2,2,nga
125,30,156,78,188,22,0,0,-0.94,0.25,-0.01,-3,3,2,nga
125,30,156,77,188,22,0,0,-0.94,0.26,-0.02,-4,4,2,nga
125,30,156,77,188,22,0,0,-0.94,0.26,-0.02,-5,5,1,nga
125,30,156,77,185,22,0,0,-0.94,0.27,-0.02,-7,5,0,nga
125,30,155,77,185,22,0,0,-0.93,0.27,-0.03,-8,6,0,nga
125,30,155,77,185,22,0,0,-0.93,0.27,-0.03,-10,6,0,nga
125,30,155,77,185,22,0,0,-0.93,0.27,-0.03,-10,6,0,nga
125,30,155,77,185,22,0,0,-0.93,0.26,-0.03,-11,6,0,nga
122,30,155,77,185,22,0,0,-0.93,0.26,-0.04,-11,6,-2,nga
122,30,156,77,182,21,0,0,-0.93,0.26,-0.04,-11,6,-3,nga
122,30,156,77,182,21,0,0,-0.93,0.26,-0.04,-11,6,-3,nga
122,30,155,77,182,21,0,0,-0.94,0.25,-0.04,-10,5,-3,nga
122,30,156,77,182,22,0,0,-0.94,0.25,-0.04,-9,4,-2,nga
122,30,156,76,182,22,0,0,-0.93,0.24,-0.04,-6,4,-1,nga
122,30,156,77,182,22,0,0,-0.93,0.24,-0.04,-5,3,-1,nga
122,30,156,77,185,22,0,0,-0.93,0.24,-0.04,-3,3,-1,nga
122,30,156,77,185,22,0,0,-0.93,0.25,-0.04,-2,3,-2,nga
122,30,155,77,185,22,0,0,-0.93,0.25,-0.04,0,3,-2,nga
122,30,155,77,182,22,0,0,-0.94,0.25,-0.04,0,3,-2,nga
125,30,156,77,182,22,0,0,-0.94,0.25,-0.04,0,3,-1,nga
125,30,156,77,182,22,0,0,-0.94,0.25,-0.04,0,2,-1,nga
125,30,155,77,182,22,0,0,-0.93,0.26,-0.04,0,1,-1,nga
125,30,155,77,185,22,0,0,-0.93,0.25,-0.04,-1,2,-1,nga
125,30,155,77,182,22,0,0,-0.94,0.26,-0.04,-3,2,-2,nga
128,30,155,77,182,22,0,0,-0.94,0.25,-0.04,-3,2,-2,nga
128,30,155,77,182,22,0,0,-0.94,0.25,-0.03,-4,2,-2,nga
128,30,155,77,182,22,0,0,-0.94,0.25,-0.04,-4,2,-1,nga
128,30,155,78,182,22,0,0,-0.94,0.25,-0.04,-4,2,-1,nga
128,30,155,78,182,24,0,0,-0.94,0.25,-0.04,-5,2,-2,nga
128,30,155,78,182,24,0,0,-0.94,0.24,-0.04,-5,2,-2,nga
128,30,155,78,182,24,0,0,-0.94,0.24,-0.03,-6,2,-2,nga
125,30,155,78,182,24,0,0,-0.94,0.24,-0.04,-5,2,-1,nga
122,30,155,78,182,24,0,0,-0.95,0.24,-0.03,-4,3,0,nga
122,30,155,78,182,24,0,0,-0.94,0.23,-0.03,-4,2,0,nga
122,30,155,77,182,24,0,0,-0.94,0.24,-0.03,-4,2,0,nga
122,30,155,77,182,24,0,0,-0.94,0.24,-0.03,-3,2,0,nga
122,30,156,77,182,24,0,0,-0.94,0.24,-0.03,-4,2,0,nga
122,30,156,77,180,24,0,0,-0.94,0.24,-0.03,-3,2,0,nga
122,30,156,77,180,24,0,0,-0.94,0.24,-0.03,-3,2,0,nga
122,30,156,77,180,24,0,0,-0.94,0.24,-0.03,-3,2,0,nga
122,30,156,77,180,24,0,0,-0.94,0.24,-0.03,-3,2,0,nga
122,30,156,77,180,24,0,0,-0.94,0.24,-0.03,-3,2,0,nga
122,30,156,77,180,24,0,0,-0.94,0.25,-0.03,-3,1,0,nga
122,30,156,77,180,22,0,0,-0.94,0.25,-0.03,-3,2,0,nga
122,28,156,77,180,22,0,0,-0.94,0.25,-0.03,-4,2,0,nga
122,28,155,77,180,22,0,0,-0.94,0.25,-0.03,-4,2,0,nga
118,28,155,78,180,22,0,0,-0.94,0.25,-0.03,-4,2,0,nga
118,28,155,77,180,22,0,0,-0.94,0.25,-0.03,-3,2,0,nga
118,30,155,77,180,22,0,0,-0.94,0.25,-0.03,-3,2,0,nga
122,30,155,77,180,22,0,0,-0.94,0.25,-0.03,-2,1,0,nga
122,30,155,77,180,24,0,0,-0.94,0.25,-0.03,-2,2,0,nga
122,28,155,77,180,24,0,0,-0.94,0.25,-0.02,-2,2,0,nga
118,28,155,76,180,22,0,0,-0.94,0.25,-0.02,-2,2,0,nga
118,30,155,77,180,24,0,0,-0.94,0.25,-0.02,-2,1,0,nga
118,30,155,77,180,24,0,0,-0.94,0.25,-0.02,-1,1,0,nga
118,30,154,77,180,24,0,0,-0.94,0.25,-0.02,-1,1,0,nga
118,28,154,77,177,24,0,0,-0.94,0.25,-0.02,-2,0,-1,nga
118,30,154,77,177,24,0,0,-0.94,0.24,-0.02,-2,0,-1,nga
115,30,154,77,177,22,0,0,-0.94,0.24,-0.02,-1,0,0,nga
111,28,154,77,177,22,0,0,-0.94,0.24,-0.01,-1,0,0,nga
111,28,154,77,180,22,0,0,-0.94,0.24,-0.01,0,-1,0,nga
108,28,154,77,177,22,0,0,-0.94,0.24,-0.01,0,0,0,nga
108,28,154,77,177,22,0,0,-0.94,0.24,-0.01,1,0,0,nga
108,28,154,77,177,21,0,0,-0.94,0.24,0,2,0,0,nga
111,28,154,77,177,21,0,0,-0.94,0.24,0,3,0,0,nga
111,28,154,76,177,21,0,0,-0.93,0.25,0,3,0,1,nga
111,30,154,77,177,21,0,0,-0.93,0.25,0,3,0,1,nga
111,30,154,77,177,21,0,0,-0.94,0.26,0,3,1,1,nga
111,30,154,77,177,21,0,0,-0.94,0.26,0,3,1,1,nga
111,30,154,78,177,21,0,0,-0.93,0.26,0,3,0,1,nga
111,30,154,77,177,19,0,0,-0.93,0.27,0,2,2,0,nga
115,30,154,77,177,21,0,0,-0.93,0.27,0,3,1,0,nga
115,30,154,77,177,21,0,0,-0.93,0.27,0,3,1,0,nga
115,30,154,77,177,19,0,0,-0.93,0.27,0,2,1,0,nga
115,28,154,77,177,19,0,0,-0.93,0.27,0,2,3,0,nga
115,28,154,77,177,19,0,0,-0.93,0.27,0,2,3,0,nga
115,28,154,76,177,19,0,0,-0.94,0.26,0,2,2,0,nga
115,26,154,76,177,19,0,0,-0.93,0.26,0,2,3,0,nga
115,26,153,75,177,19,0,0,-0.93,0.26,-0.01,2,2,0,nga
115,26,153,75,177,19,0,0,-0.93,0.26,-0.01,1,2,0,nga
115,26,153,74,177,19,0,0,-0.93,0.26,0,4,1,0,nga
115,26,153,75,177,18,0,0,-0.93,0.26,-0.01,7,2,1,nga
115,26,153,75,177,19,0,0,-0.94,0.26,-0.01,11,1,1,nga
111,28,153,75,177,19,0,0,-0.93,0.26,-0.01,11,1,1,nga
115,28,152,76,177,19,9,0,-0.93,0.26,-0.02,12,1,1,nga
111,28,152,76,177,19,28,0,-0.93,0.26,-0.02,12,0,1,nga
111,30,152,77,177,21,45,0,-0.93,0.27,-0.02,13,0,1,nga
111,30,152,77,177,21,60,15,-0.93,0.27,-0.02,11,1,2,nga
111,30,152,78,174,21,72,27,-0.93,0.27,-0.03,9,2,2,nga
111,30,151,79,174,21,79,35,-0.93,0.28,-0.03,8,3,2,nga
111,30,151,80,174,19,81,37,-0.92,0.28,-0.04,4,4,2,nga
108,30,151,80,174,19,76,27,-0.92,0.29,-0.05,0,4,1,nga
108,30,150,80,174,19,57,12,-0.92,0.29,-0.05,-5,5,0,nga
108,30,150,80,174,19,45,0,-0.93,0.29,-0.04,-7,5,0,nga
108,30,151,81,174,19,33,0,-0.92,0.29,-0.04,-7,5,0,nga
108,30,150,80,174,19,21,0,-0.93,0.29,-0.04,-8,5,0,nga
108,32,151,80,174,19,12,0,-0.93,0.29,-0.04,-9,6,0,nga
105,30,150,80,174,19,2,0,-0.93,0.29,-0.04,-8,4,0,nga
105,30,150,80,177,18,0,0,-0.93,0.29,-0.04,-5,4,0,nga
105,30,150,80,177,18,0,0,-0.93,0.29,-0.04,-6,3,0,nga
105,30,150,80,177,19,0,0,-0.93,0.29,-0.03,-5,2,0,nga
105,30,150,80,177,19,0,0,-0.93,0.29,-0.03,-4,2,0,nga
105,30,150,80,177,19,0,0,-0.93,0.29,-0.03,-3,1,0,nga
105,30,150,79,177,19,0,0,-0.93,0.29,-0.03,-2,1,0,nga
105,30,150,79,177,19,0,0,-0.93,0.29,-0.03,-3,1,0,nga
108,30,150,79,177,19,0,0,-0.92,0.29,-0.03,-2,1,0,nga
105,30,149,79,177,19,0,0,-0.92,0.29,-0.03,-2,0,-1,nga
108,30,149,79,177,19,0,0,-0.92,0.29,-0.03,0,0,0,nga
108,30,150,79,177,19,0,0,-0.92,0.29,-0.03,-1,0,-1,nga
105,30,149,79,177,18,0,0,-0.92,0.28,-0.03,0,0,-1,nga
105,30,150,78,177,18,0,0,-0.92,0.28,-0.03,0,0,-2,nga
105,30,150,77,177,18,0,0,-0.92,0.28,-0.03,1,0,-2,nga
105,30,150,77,177,16,0,0,-0.93,0.28,-0.03,0,1,-2,nga
105,30,150,76,177,16,0,0,-0.93,0.28,-0.03,1,1,-2,nga
105,30,150,75,177,16,0,0,-0.93,0.28,-0.03,1,2,-2,nga
105,28,150,75,177,16,0,0,-0.93,0.28,-0.03,0,2,-2,nga
105,28,151,74,177,15,0,0,-0.93,0.27,-0.03,0,2,-2,nga
105,28,151,73,177,15,0,0,-0.93,0.27,-0.03,0,3,-2,nga
101,28,151,72,177,16,0,0,-0.93,0.27,-0.02,1,2,-1,nga
101,28,151,72,177,16,0,0,-0.94,0.27,-0.02,4,2,0,nga
101,28,150,73,177,16,0,0,-0.93,0.27,-0.03,6,3,1,nga
101,28,150,74,177,16,0,0,-0.93,0.27,-0.03,8,2,1,nga
101,28,150,75,177,16,12,0,-0.93,0.28,-0.03,8,2,1,nga
101,30,150,76,177,18,26,0,-0.93,0.28,-0.03,7,2,2,nga
101,30,150,77,177,18,38,10,-0.92,0.28,-0.03,5,1,2,nga
101,30,150,78,177,18,50,22,-0.92,0.28,-0.04,3,2,3,nga
101,30,150,79,177,18,57,25,-0.92,0.29,-0.04,2,2,3,nga
101,30,150,80,177,19,67,27,-0.92,0.29,-0.04,2,3,3,nga
105,32,150,81,177,19,69,22,-0.91,0.3,-0.04,1,3,2,nga
105,32,150,82,177,19,64,12,-0.9,0.3,-0.04,-3,3,1,nga
108,32,150,82,177,19,55,0,-0.91,0.3,-0.03,-5,3,0,nga
108,32,150,81,177,21,43,0,-0.91,0.3,-0.03,-8,3,0,nga
108,32,149,81,177,21,31,0,-0.91,0.3,-0.03,-7,3,0,nga
111,32,149,80,177,19,19,0,-0.91,0.3,-0.03,-6,2,0,nga
108,32,148,80,177,19,12,0,-0.92,0.3,-0.03,-5,2,0,nga
108,32,149,80,177,19,4,0,-0.92,0.3,-0.02,-2,2,0,nga
108,32,149,80,177,19,0,0,-0.92,0.3,-0.03,-1,1,-1,nga
108,32,148,80,174,18,0,0,-0.92,0.3,-0.03,0,1,0,nga
108,32,149,80,174,18,0,0,-0.92,0.3,-0.03,-2,1,0,nga
105,32,149,80,174,18,0,0,-0.92,0.3,-0.02,-2,0,1,nga
105,32,149,80,174,18,0,0,-0.91,0.3,-0.03,-2,1,2,nga
105,32,149,80,174,18,0,0,-0.91,0.3,-0.03,0,3,2,nga
105,30,149,80,174,18,0,0,-0.91,0.31,-0.04,-2,4,1,nga
101,30,149,80,174,18,0,0,-0.92,0.31,-0.04,-3,4,1,nga
101,30,149,79,174,16,0,0,-0.92,0.31,-0.04,-4,5,0,nga
101,30,149,79,174,16,0,0,-0.91,0.31,-0.05,-5,5,0,nga
101,30,149,78,174,16,0,0,-0.91,0.31,-0.05,-6,5,-1,nga
101,30,149,78,174,16,0,0,-0.91,0.31,-0.05,-7,6,-2,nga
101,30,149,77,174,16,0,0,-0.91,0.31,-0.06,-7,6,-2,nga
101,30,149,77,174,16,0,0,-0.92,0.31,-0.06,-6,7,-3,nga
101,30,149,76,174,16,0,0,-0.92,0.31,-0.06,-7,6,-4,nga
98,28,149,76,174,15,0,0,-0.93,0.3,-0.06,-8,4,-5,nga
101,28,149,75,174,15,0,0,-0.93,0.3,-0.06,-8,3,-4,nga
101,28,149,75,174,15,0,0,-0.92,0.29,-0.06,-8,2,-4,nga
101,30,149,75,174,15,0,0,-0.92,0.28,-0.06,-6,1,-4,nga
101,30,149,74,174,15,0,0,-0.93,0.28,-0.05,-5,1,-3,nga
101,30,149,75,174,15,0,0,-0.93,0.27,-0.05,-3,0,-3,nga
101,30,149,75,174,15,0,0,-0.94,0.27,-0.05,2,-2,-2,nga
101,30,149,75,174,15,0,0,-0.93,0.27,-0.06,7,-2,0,nga
101,30,148,76,174,15,0,0,-0.92,0.28,-0.06,8,-3,0,nga
101,30,148,76,174,16,2,0,-0.92,0.28,-0.05,9,-3,0,nga
105,30,148,77,174,16,12,0,-0.93,0.28,-0.05,6,-2,1,nga
101,30,147,77,174,16,19,0,-0.92,0.28,-0.05,7,-1,1,nga
101,30,147,78,174,16,26,0,-0.92,0.29,-0.05,7,0,2,nga
98,30,146,78,174,16,31,0,-0.92,0.29,-0.05,7,0,3,nga
98,30,146,79,174,16,36,0,-0.92,0.3,-0.06,6,1,3,nga
101,30,146,80,174,16,38,0,-0.92,0.3,-0.06,6,1,3,nga
98,30,146,80,174,16,38,0,-0.91,0.3,-0.05,1,3,3,nga
98,30,146,81,174,16,28,0,-0.91,0.31,-0.04,-4,2,0,nga
98,30,146,80,174,16,21,0,-0.93,0.3,-0.04,-5,3,0,nga
98,30,146,81,174,16,14,0,-0.92,0.29,-0.04,-5,4,1,nga
98,30,145,81,174,16,9,0,-0.91,0.29,-0.04,-2,4,2,nga
101,30,145,81,174,16,4,0,-0.91,0.29,-0.04,-2,5,2,nga
98,30,145,82,174,18,4,0,-0.91,0.3,-0.04,-2,5,0,nga
101,30,145,82,174,18,2,0,-0.92,0.3,-0.04,-2,6,0,nga
101,32,146,82,174,19,2,0,-0.92,0.31,-0.05,-3,5,-2,nga
98,30,146,82,174,19,0,0,-0.92,0.31,-0.05,-3,5,-2,nga
101,30,146,82,174,19,0,0,-0.92,0.31,-0.06,-4,4,-1,nga
101,30,146,82,174,19,0,0,-0.92,0.3,-0.07,-4,4,0,nga
101,30,147,81,174,19,0,0,-0.92,0.31,-0.07,-4,5,0,nga
98,30,146,81,174,19,0,0,-0.92,0.31,-0.07,-5,5,-2,nga
98,30,147,81,174,19,0,0,-0.92,0.31,-0.07,-5,4,-3,nga
98,30,148,81,174,19,0,0,-0.93,0.3,-0.07,-5,3,-3,nga
98,30,148,80,174,19,0,0,-0.93,0.3,-0.07,-5,2,-2,nga
98,30,148,80,174,19,0,0,-0.92,0.29,-0.08,-5,2,-1,nga
98,30,148,80,174,18,0,0,-0.92,0.29,-0.07,-4,2,0,nga
101,32,147,80,174,18,0,0,-0.92,0.29,-0.07,-4,2,0,nga
98,30,148,80,174,18,0,0,-0.92,0.29,-0.07,-3,3,0,nga
98,30,147,80,174,18,0,0,-0.92,0.29,-0.07,-3,3,-1,nga
98,32,147,80,174,18,0,0,-0.92,0.29,-0.07,-4,2,0,nga
101,32,148,80,174,18,0,0,-0.92,0.29,-0.07,-3,1,0,nga
101,32,147,80,174,19,0,0,-0.93,0.3,-0.07,-2,-12,-2,nga
101,32,147,80,174,19,0,0,-0.93,0.3,-0.06,-6,-15,-2,nga
101,32,147,81,174,19,0,0,-0.92,0.29,-0.04,-7,-19,-3,nga
101,30,147,81,174,19,0,0,-0.92,0.29,-0.02,-7,-19,-3,nga
98,30,146,81,174,19,0,0,-0.93,0.29,0.01,-8,-24,-3,nga
98,30,146,82,174,19,0,0,-0.93,0.29,0.03,-8,-31,-4,nga
98,30,146,83,174,19,0,0,-0.93,0.28,0.07,-9,-35,-4,nga
98,30,146,85,174,21,0,0,-0.92,0.28,0.1,-8,-37,-4,nga
98,30,146,86,174,21,0,0,-0.92,0.27,0.14,-7,-40,-4,nga
98,30,146,87,174,21,0,0,-0.91,0.27,0.18,-7,-42,-5,nga
98,30,146,88,174,21,0,0,-0.89,0.25,0.22,-7,-29,-2,nga
98,30,146,90,174,22,0,0,-0.89,0.25,0.26,-3,-29,-2,nga
98,30,146,90,174,22,0,0,-0.89,0.26,0.28,-1,-28,-2,nga
98,30,146,92,174,22,0,0,-0.88,0.25,0.31,0,-29,-2,nga
98,30,146,92,174,22,0,0,-0.86,0.26,0.33,0,-23,-2,nga
98,30,147,93,174,24,0,0,-0.85,0.26,0.35,0,-9,-2,nga
98,28,146,93,174,24,0,0,-0.86,0.26,0.36,0,6,-1,nga
98,28,146,94,174,24,0,0,-0.86,0.26,0.35,-3,13,-1,nga
98,28,147,94,171,24,0,0,-0.87,0.26,0.33,-6,21,-1,nga
91,28,147,94,171,24,0,0,-0.87,0.26,0.31,-9,30,0,nga
91,28,147,94,171,24,0,0,-0.88,0.26,0.29,-12,33,-1,nga
91,30,147,94,171,24,0,0,-0.9,0.26,0.26,-16,40,0,nga
91,30,147,94,171,24,0,0,-0.91,0.26,0.23,-22,42,-2,nga
91,30,147,93,171,24,0,0,-0.92,0.26,0.2,-27,43,-3,nga
91,30,147,93,171,24,0,0,-0.94,0.25,0.17,-31,41,-4,nga
91,30,147,93,171,24,0,0,-0.95,0.23,0.14,-33,34,-5,nga
91,32,147,93,171,24,0,0,-0.94,0.23,0.12,-32,22,-5,nga
91,32,147,93,171,24,0,0,-0.95,0.21,0.12,-24,16,-5,nga
91,32,147,93,171,24,0,0,-0.94,0.21,0.1,-13,9,-5,nga
98,28,147,92,171,24,0,0,-0.95,0.2,0.1,0,1,-6,nga
94,28,147,92,171,24,0,0,-0.94,0.2,0.1,9,-2,-4,nga
94,28,147,92,171,24,0,0,-0.94,0.19,0.11,21,-5,-4,nga
94,28,147,93,171,24,0,0,-0.94,0.18,0.11,29,-6,-2,nga
94,28,146,93,171,24,0,0,-0.94,0.19,0.11,41,-6,0,nga
94,28,146,92,171,24,0,0,-0.94,0.2,0.1,49,-5,0,nga
94,28,146,92,171,22,0,0,-0.94,0.21,0.1,56,-4,1,nga
94,26,146,90,171,22,0,0,-0.94,0.21,0.09,55,-4,1,nga
94,26,145,88,171,21,0,0,-0.95,0.24,0.08,51,-2,2,nga
94,26,145,86,171,19,0,0,-0.95,0.23,0.08,43,-2,1,nga
94,28,144,83,171,18,0,0,-0.94,0.25,0.07,34,0,1,nga
94,28,143,80,171,16,0,0,-0.95,0.25,0.07,30,0,0,nga
94,28,143,78,171,15,0,0,-0.95,0.25,0.07,23,-1,-1,nga
94,28,142,75,171,13,0,0,-0.95,0.26,0.06,21,-1,-1,nga
91,28,142,71,174,12,0,0,-0.95,0.25,0.06,15,0,-1,nga
91,26,142,70,174,12,0,0,-0.94,0.25,0.06,15,0,0,nga
91,26,143,70,174,12,0,0,-0.95,0.25,0.07,11,-1,0,nga
91,28,143,70,174,13,0,0,-0.94,0.25,0.07,10,-2,0,nga
94,28,144,72,174,13,0,0,-0.94,0.24,0.07,8,-1,-2,nga
94,28,145,73,174,16,0,0,-0.94,0.25,0.08,5,0,-2,nga
94,28,146,76,174,18,0,0,-0.94,0.24,0.08,3,0,-2,nga
94,30,147,78,174,19,0,0,-0.95,0.24,0.08,0,1,-1,nga
94,30,148,81,174,21,0,0,-0.94,0.24,0.09,0,2,0,nga
98,30,149,84,174,22,0,0,-0.94,0.24,0.09,-3,3,0,nga
98,30,150,87,174,24,0,0,-0.94,0.24,0.09,-5,4,-2,nga
98,32,151,89,174,25,0,0,-0.94,0.24,0.09,-10,3,-3,nga
101,32,151,90,174,25,0,0,-0.94,0.24,0.09,-13,4,-3,nga
101,32,151,91,174,25,0,0,-0.94,0.24,0.09,-14,5,-3,nga
101,32,151,93,174,25,0,0,-0.94,0.23,0.09,-14,5,-3,nga
101,32,151,94,174,25,0,0,-0.94,0.23,0.08,-13,6,-2,nga
98,32,151,94,174,25,0,0,-0.94,0.23,0.08,-12,7,-2,nga
98,32,151,95,174,25,0,0,-0.94,0.23,0.08,-11,8,-1,nga
98,32,151,94,171,25,0,0,-0.94,0.23,0.07,-9,7,-2,nga
98,32,151,94,171,25,0,0,-0.95,0.22,0.07,-9,6,-1,nga
94,32,151,94,171,25,0,0,-0.95,0.22,0.07,-6,3,0,nga
98,32,151,95,171,25,0,0,-0.94,0.22,0.07,-1,2,1,nga
91,32,152,95,171,25,0,0,-0.94,0.22,0.07,5,1,3,nga
91,30,151,95,171,25,0,0,-0.93,0.23,0.07,8,2,3,nga
91,28,151,94,171,25,0,0,-0.93,0.23,0.06,9,2,3,nga
91,28,151,94,171,25,0,0,-0.93,0.23,0.07,10,1,2,nga
91,28,151,93,171,25,0,0,-0.93,0.24,0.07,9,0,1,nga
91,30,151,93,171,25,0,0,-0.94,0.24,0.06,8,0,0,nga
91,30,151,93,171,25,0,0,-0.94,0.24,0.07,6,1,1,nga
91,30,151,93,171,25,0,0,-0.93,0.24,0.06,6,3,1,nga
91,30,151,93,171,25,0,0,-0.93,0.24,0.06,4,4,0,nga
91,30,151,93,171,25,0,0,-0.94,0.24,0.06,0,5,0,nga
91,30,151,93,171,25,0,0,-0.94,0.24,0.05,-3,5,-2,nga
91,30,151,94,171,25,0,0,-0.94,0.24,0.05,-5,5,-2,nga
91,32,150,95,171,25,0,0,-0.94,0.24,0.05,-5,3,-1,nga
91,32,150,95,171,25,0,0,-0.94,0.24,0.04,-5,3,0,nga
91,32,149,96,171,25,0,0,-0.94,0.24,0.04,-5,3,0,nga
91,32,149,97,171,25,0,0,-0.94,0.23,0.04,-4,3,0,nga
91,32,149,97,171,25,0,0,-0.94,0.24,0.04,-3,2,0,nga
91,32,149,98,171,27,0,0,-0.94,0.24,0.04,-2,1,0,nga
91,32,147,98,168,27,0,0,-0.94,0.24,0.05,-2,1,0,nga
91,32,147,100,168,27,0,0,-0.94,0.24,0.05,-1,1,0,nga
91,32,147,100,168,27,0,0,-0.94,0.24,0.05,0,1,0,nga
91,32,147,100,171,27,0,0,-0.94,0.24,0.05,0,1,0,nga
91,34,147,101,168,27,0,0,-0.94,0.24,0.05,0,1,0,nga
91,34,147,102,171,27,0,0,-0.94,0.24,0.05,1,1,0,nga
91,34,147,102,168,27,0,0,-0.94,0.24,0.05,1,0,0,nga
91,34,146,102,171,27,0,0,-0.94,0.24,0.05,1,1,0,nga
91,34,147,102,171,27,0,0,-0.94,0.24,0.05,1,1,0,nga
91,34,147,102,171,27,0,0,-0.94,0.24,0.05,0,1,0,nga
91,34,147,102,171,27,0,0,-0.94,0.24,0.06,0,1,0,nga
91,34,148,102,171,27,0,0,-0.94,0.24,0.06,0,1,0,nga
91,34,147,102,171,27,0,0,-0.94,0.24,0.06,0,1,0,nga
91,34,148,101,171,27,0,0,-0.94,0.24,0.06,-1,2,0,nga
91,34,148,100,171,27,0,0,-0.94,0.25,0.06,0,1,0,nga
