idxUp,idxLow,midUp,midLow,ringUp,ringLow,thumb,pinky,ax,ay,az,gx,gy,gz,label
86.0,0.0,168.0,57.0,414.0,165.0,76.0,366.0,-0.08,0.91,0.36,0.0,7.0,-5.0,ga
86.0,0.0,165.0,54.0,378.0,152.0,85.0,340.0,-0.09,0.91,0.36,-1.0,8.0,-7.0,ga
88.0,0.0,162.0,51.0,351.0,138.0,83.0,315.0,-0.1,0.91,0.37,0.0,8.0,-6.0,ga
86.0,0.0,159.0,47.0,318.0,123.0,85.0,290.0,-0.11,0.9,0.37,1.0,9.0,-5.0,ga
104.0,0.0,156.0,42.0,276.0,110.0,81.0,262.0,-0.11,0.9,0.36,2.0,10.0,-5.0,ga
104.0,0.0,152.0,41.0,246.0,96.0,81.0,236.0,-0.12,0.9,0.36,3.0,12.0,-5.0,ga
104.0,0.0,150.0,38.0,210.0,81.0,83.0,211.0,-0.13,0.9,0.35,4.0,12.0,-5.0,ga
104.0,0.0,148.0,33.0,177.0,64.0,83.0,180.0,-0.14,0.9,0.34,6.0,12.0,-4.0,ga
104.0,0.0,145.0,30.0,147.0,52.0,83.0,157.0,-0.15,0.91,0.33,5.0,13.0,-4.0,ga
106.0,0.0,142.0,25.0,120.0,37.0,83.0,132.0,-0.16,0.9,0.33,6.0,12.0,-2.0,ga
96.0,0.0,142.0,26.0,117.0,39.0,90.0,132.0,-0.16,0.91,0.32,5.0,10.0,0.0,ga
98.0,0.0,141.0,24.0,114.0,39.0,85.0,127.0,-0.16,0.91,0.31,6.0,9.0,2.0,ga
98.0,0.0,142.0,24.0,108.0,40.0,88.0,127.0,-0.15,0.91,0.3,5.0,9.0,2.0,ga
100.0,0.0,142.0,24.0,108.0,40.0,88.0,129.0,-0.15,0.92,0.29,4.0,10.0,2.0,ga
84.0,0.0,142.0,24.0,111.0,39.0,88.0,129.0,-0.15,0.92,0.29,1.0,8.0,3.0,ga
82.0,0.0,142.0,24.0,102.0,39.0,90.0,129.0,-0.14,0.93,0.29,0.0,7.0,3.0,ga
84.0,0.0,142.0,24.0,102.0,39.0,93.0,129.0,-0.13,0.94,0.28,-2.0,7.0,3.0,ga
80.0,0.0,142.0,24.0,114.0,39.0,93.0,129.0,-0.13,0.94,0.29,-2.0,7.0,4.0,ga
82.0,0.0,143.0,24.0,114.0,37.0,97.0,129.0,-0.12,0.93,0.29,-2.0,6.0,4.0,ga
80.0,0.0,142.0,26.0,114.0,37.0,97.0,132.0,-0.12,0.93,0.29,-1.0,6.0,3.0,ga
88.0,0.0,142.0,26.0,117.0,36.0,93.0,132.0,-0.12,0.93,0.28,0.0,7.0,2.0,ga
88.0,0.0,142.0,26.0,120.0,34.0,97.0,134.0,-0.12,0.93,0.28,-1.0,6.0,2.0,ga
86.0,0.0,143.0,26.0,126.0,34.0,97.0,137.0,-0.12,0.93,0.27,-3.0,6.0,1.0,ga
90.0,0.0,142.0,26.0,123.0,34.0,102.0,134.0,-0.12,0.93,0.28,-3.0,5.0,1.0,ga
90.0,0.0,138.0,26.0,123.0,34.0,97.0,132.0,-0.12,0.93,0.28,-2.0,5.0,1.0,ga
94.0,0.0,139.0,26.0,132.0,40.0,97.0,134.0,-0.12,0.93,0.28,-3.0,4.0,1.0,ga
96.0,0.0,138.0,26.0,129.0,40.0,97.0,132.0,-0.12,0.93,0.28,-2.0,4.0,0.0,ga
98.0,0.0,138.0,26.0,117.0,40.0,97.0,132.0,-0.13,0.93,0.28,-4.0,3.0,0.0,ga
100.0,0.0,138.0,24.0,111.0,40.0,95.0,132.0,-0.12,0.93,0.28,-3.0,3.0,0.0,ga
98.0,0.0,140.0,24.0,111.0,40.0,93.0,129.0,-0.12,0.93,0.28,-5.0,2.0,0.0,ga
102.0,0.0,139.0,23.0,105.0,40.0,88.0,127.0,-0.12,0.93,0.29,-5.0,2.0,0.0,ga
98.0,0.0,139.0,23.0,105.0,40.0,85.0,127.0,-0.12,0.93,0.29,-5.0,1.0,0.0,ga
98.0,0.0,138.0,23.0,105.0,40.0,85.0,127.0,-0.12,0.93,0.3,-3.0,1.0,0.0,ga
98.0,0.0,138.0,23.0,102.0,40.0,83.0,124.0,-0.12,0.93,0.29,-3.0,1.0,0.0,ga
94.0,0.0,141.0,22.0,108.0,39.0,85.0,127.0,-0.12,0.93,0.29,-3.0,1.0,-1.0,ga
96.0,0.0,143.0,23.0,105.0,34.0,88.0,127.0,-0.12,0.93,0.3,-3.0,1.0,-1.0,ga
90.0,0.0,144.0,22.0,108.0,34.0,85.0,127.0,-0.12,0.93,0.3,-2.0,1.0,0.0,ga
90.0,0.0,144.0,21.0,108.0,34.0,85.0,127.0,-0.12,0.93,0.29,0.0,1.0,0.0,ga
88.0,0.0,144.0,21.0,111.0,33.0,85.0,122.0,-0.13,0.93,0.29,0.0,2.0,-2.0,ga
90.0,0.0,142.0,20.0,108.0,34.0,88.0,122.0,-0.13,0.93,0.29,0.0,2.0,0.0,ga
90.0,0.0,142.0,20.0,111.0,34.0,85.0,122.0,-0.13,0.94,0.29,0.0,2.0,0.0,ga
86.0,0.0,142.0,20.0,111.0,30.0,88.0,122.0,-0.12,0.94,0.29,0.0,2.0,0.0,ga
88.0,0.0,143.0,21.0,111.0,31.0,90.0,124.0,-0.12,0.94,0.29,0.0,1.0,0.0,ga
84.0,0.0,142.0,21.0,114.0,30.0,88.0,132.0,-0.12,0.94,0.3,-1.0,0.0,0.0,ga
86.0,0.0,143.0,21.0,108.0,31.0,93.0,137.0,-0.12,0.94,0.29,-1.0,0.0,1.0,ga
96.0,0.0,141.0,21.0,108.0,31.0,93.0,132.0,-0.12,0.94,0.29,-3.0,0.0,1.0,ga
96.0,0.0,141.0,21.0,108.0,30.0,93.0,132.0,-0.12,0.94,0.3,-5.0,0.0,2.0,ga
96.0,0.0,141.0,24.0,111.0,31.0,93.0,129.0,-0.11,0.94,0.3,-8.0,0.0,3.0,ga
94.0,0.0,141.0,24.0,114.0,31.0,90.0,137.0,-0.11,0.94,0.31,-12.0,0.0,5.0,ga
92.0,0.0,141.0,25.0,114.0,31.0,93.0,139.0,-0.1,0.94,0.32,-16.0,-1.0,6.0,ga
90.0,0.0,141.0,26.0,117.0,31.0,95.0,142.0,-0.1,0.93,0.33,-20.0,0.0,8.0,ga
96.0,0.0,140.0,26.0,114.0,34.0,90.0,139.0,-0.09,0.92,0.35,-23.0,0.0,10.0,ga
94.0,0.0,140.0,24.0,108.0,36.0,90.0,142.0,-0.08,0.91,0.37,-26.0,0.0,11.0,ga
98.0,0.0,140.0,23.0,108.0,36.0,90.0,134.0,-0.07,0.9,0.39,-28.0,1.0,11.0,ga
100.0,0.0,141.0,24.0,108.0,34.0,90.0,129.0,-0.05,0.89,0.42,-31.0,2.0,13.0,ga
86.0,0.0,141.0,24.0,108.0,34.0,88.0,132.0,-0.04,0.87,0.44,-32.0,3.0,14.0,ga
88.0,0.0,141.0,24.0,105.0,34.0,85.0,127.0,-0.03,0.86,0.47,-34.0,3.0,14.0,ga
88.0,0.0,142.0,23.0,105.0,34.0,88.0,129.0,-0.02,0.84,0.5,-33.0,4.0,14.0,ga
88.0,0.0,142.0,23.0,105.0,34.0,90.0,127.0,-0.0,0.83,0.53,-33.0,3.0,13.0,ga
94.0,0.0,142.0,23.0,108.0,34.0,85.0,127.0,0.01,0.81,0.55,-30.0,4.0,13.0,ga
90.0,0.0,142.0,23.0,108.0,33.0,88.0,127.0,0.02,0.8,0.58,-28.0,3.0,11.0,ga
88.0,0.0,143.0,23.0,105.0,33.0,88.0,127.0,0.03,0.79,0.6,-23.0,4.0,9.0,ga
86.0,0.0,142.0,24.0,114.0,33.0,64.0,124.0,0.03,0.77,0.61,-18.0,4.0,7.0,ga
88.0,0.0,143.0,24.0,114.0,33.0,66.0,124.0,0.04,0.76,0.62,-12.0,4.0,5.0,ga
88.0,0.0,142.0,23.0,111.0,36.0,69.0,124.0,0.03,0.76,0.63,-6.0,4.0,2.0,ga
88.0,0.0,143.0,23.0,114.0,36.0,69.0,127.0,0.04,0.76,0.63,0.0,4.0,0.0,ga
90.0,0.0,143.0,23.0,114.0,36.0,71.0,134.0,0.03,0.77,0.62,8.0,5.0,-3.0,ga
86.0,0.0,142.0,23.0,99.0,36.0,73.0,134.0,0.03,0.77,0.61,15.0,5.0,-5.0,ga
90.0,0.0,143.0,23.0,96.0,36.0,73.0,132.0,0.02,0.79,0.6,21.0,5.0,-7.0,ga
84.0,0.0,142.0,23.0,96.0,37.0,71.0,132.0,0.01,0.8,0.58,26.0,6.0,-9.0,ga
88.0,0.0,142.0,23.0,99.0,37.0,95.0,129.0,-0.0,0.81,0.55,30.0,5.0,-10.0,ga
90.0,0.0,141.0,24.0,99.0,37.0,78.0,129.0,-0.01,0.83,0.52,33.0,6.0,-11.0,ga
90.0,0.0,141.0,24.0,99.0,36.0,102.0,122.0,-0.03,0.85,0.5,33.0,5.0,-12.0,ga
92.0,0.0,141.0,24.0,99.0,36.0,100.0,122.0,-0.03,0.87,0.46,33.0,3.0,-12.0,ga
86.0,0.0,141.0,25.0,99.0,34.0,97.0,122.0,-0.04,0.88,0.43,31.0,3.0,-12.0,ga
88.0,0.0,140.0,25.0,99.0,34.0,88.0,119.0,-0.05,0.89,0.41,30.0,4.0,-13.0,ga
88.0,0.0,139.0,25.0,99.0,36.0,85.0,117.0,-0.06,0.9,0.38,29.0,4.0,-12.0,ga
90.0,0.0,138.0,26.0,108.0,37.0,85.0,114.0,-0.07,0.91,0.35,28.0,3.0,-11.0,ga
90.0,0.0,137.0,25.0,108.0,36.0,85.0,114.0,-0.08,0.92,0.32,28.0,4.0,-11.0,ga
90.0,0.0,137.0,26.0,105.0,36.0,85.0,114.0,-0.09,0.93,0.3,25.0,2.0,-11.0,ga
92.0,0.0,137.0,26.0,99.0,36.0,64.0,117.0,-0.1,0.94,0.28,25.0,2.0,-10.0,ga
90.0,0.0,137.0,26.0,102.0,36.0,81.0,117.0,-0.11,0.94,0.26,25.0,1.0,-9.0,ga
90.0,0.0,136.0,26.0,99.0,39.0,78.0,122.0,-0.12,0.94,0.23,26.0,1.0,-9.0,ga
90.0,0.0,136.0,27.0,99.0,39.0,78.0,122.0,-0.13,0.95,0.2,26.0,3.0,-9.0,ga
88.0,0.0,137.0,27.0,99.0,37.0,81.0,122.0,-0.13,0.95,0.18,26.0,1.0,-7.0,ga
88.0,0.0,136.0,27.0,99.0,37.0,88.0,124.0,-0.14,0.95,0.16,25.0,0.0,-6.0,ga
86.0,0.0,136.0,27.0,96.0,36.0,88.0,124.0,-0.14,0.95,0.13,22.0,0.0,-5.0,ga
86.0,0.0,137.0,26.0,96.0,36.0,88.0,124.0,-0.15,0.95,0.11,19.0,0.0,-4.0,ga
90.0,0.0,137.0,26.0,99.0,36.0,88.0,124.0,-0.15,0.96,0.09,15.0,-1.0,-3.0,ga
90.0,0.0,138.0,25.0,96.0,36.0,85.0,124.0,-0.15,0.96,0.07,10.0,1.0,0.0,ga
90.0,0.0,138.0,25.0,93.0,36.0,83.0,122.0,-0.15,0.96,0.06,2.0,3.0,1.0,ga
86.0,0.0,138.0,24.0,102.0,34.0,83.0,122.0,-0.15,0.96,0.07,-6.0,5.0,5.0,ga
86.0,0.0,138.0,23.0,102.0,33.0,85.0,124.0,-0.14,0.96,0.08,-14.0,6.0,10.0,ga
86.0,0.0,139.0,23.0,102.0,33.0,88.0,124.0,-0.13,0.96,0.1,-17.0,6.0,13.0,ga
88.0,0.0,138.0,22.0,105.0,33.0,88.0,127.0,-0.13,0.96,0.12,-20.0,9.0,14.0,ga
86.0,0.0,138.0,22.0,87.0,33.0,88.0,127.0,-0.11,0.96,0.13,-22.0,10.0,14.0,ga
86.0,0.0,139.0,22.0,96.0,31.0,88.0,124.0,-0.1,0.96,0.15,-25.0,10.0,14.0,ga
86.0,0.0,140.0,22.0,99.0,31.0,90.0,124.0,-0.08,0.96,0.18,-27.0,12.0,11.0,ga
80.0,0.0,140.0,23.0,102.0,31.0,93.0,124.0,-0.08,0.95,0.21,-33.0,15.0,8.0,ga
80.0,0.0,141.0,21.0,105.0,31.0,100.0,127.0,-0.07,0.94,0.24,-33.0,16.0,5.0,ga
78.0,0.0,140.0,21.0,111.0,31.0,100.0,129.0,-0.06,0.93,0.27,-33.0,18.0,1.0,ga
84.0,0.0,140.0,21.0,105.0,33.0,97.0,124.0,-0.07,0.92,0.29,-30.0,18.0,-4.0,ga
84.0,0.0,140.0,23.0,99.0,33.0,97.0,122.0,-0.08,0.91,0.3,-29.0,22.0,-8.0,ga
86.0,0.0,139.0,23.0,99.0,33.0,95.0,122.0,-0.09,0.91,0.32,-29.0,23.0,-12.0,ga
88.0,0.0,140.0,22.0,90.0,33.0,93.0,122.0,-0.11,0.9,0.34,-30.0,23.0,-15.0,ga
88.0,0.0,140.0,23.0,99.0,33.0,95.0,119.0,-0.13,0.89,0.36,-33.0,25.0,-18.0,ga
88.0,0.0,139.0,23.0,96.0,33.0,93.0,124.0,-0.15,0.88,0.39,-33.0,26.0,-19.0,ga
88.0,0.0,137.0,23.0,93.0,33.0,90.0,124.0,-0.18,0.87,0.41,-32.0,26.0,-18.0,ga
88.0,0.0,137.0,22.0,93.0,33.0,88.0,122.0,-0.2,0.85,0.43,-27.0,24.0,-16.0,ga
86.0,0.0,137.0,23.0,90.0,33.0,83.0,119.0,-0.23,0.84,0.44,-25.0,23.0,-16.0,ga
86.0,0.0,138.0,23.0,87.0,33.0,83.0,117.0,-0.25,0.84,0.45,-22.0,21.0,-14.0,ga
86.0,0.0,137.0,22.0,84.0,33.0,81.0,117.0,-0.26,0.82,0.46,-20.0,19.0,-13.0,ga
82.0,0.0,138.0,23.0,90.0,33.0,81.0,119.0,-0.28,0.82,0.48,-20.0,16.0,-14.0,ga
82.0,0.0,138.0,23.0,90.0,33.0,81.0,119.0,-0.3,0.81,0.49,-19.0,14.0,-13.0,ga
78.0,0.0,137.0,22.0,96.0,33.0,81.0,117.0,-0.31,0.8,0.5,-19.0,12.0,-12.0,ga
78.0,0.0,137.0,21.0,99.0,33.0,78.0,114.0,-0.33,0.79,0.51,-17.0,10.0,-11.0,ga
80.0,0.0,137.0,21.0,99.0,33.0,66.0,114.0,-0.35,0.77,0.52,-14.0,8.0,-9.0,ga
78.0,0.0,139.0,21.0,99.0,33.0,66.0,114.0,-0.35,0.77,0.53,-10.0,3.0,-6.0,ga
80.0,0.0,138.0,21.0,96.0,34.0,66.0,117.0,-0.35,0.77,0.53,-5.0,3.0,-2.0,ga
80.0,0.0,138.0,23.0,99.0,33.0,66.0,117.0,-0.35,0.77,0.53,0.0,-5.0,1.0,ga
82.0,0.0,138.0,23.0,99.0,33.0,66.0,119.0,-0.34,0.77,0.53,4.0,-6.0,4.0,ga
80.0,0.0,139.0,23.0,105.0,34.0,69.0,122.0,-0.33,0.78,0.52,8.0,-9.0,6.0,ga
80.0,0.0,139.0,21.0,102.0,33.0,69.0,122.0,-0.31,0.78,0.51,12.0,-8.0,9.0,ga
80.0,0.0,139.0,22.0,99.0,33.0,66.0,119.0,-0.3,0.79,0.5,16.0,-9.0,11.0,ga
80.0,0.0,139.0,22.0,102.0,33.0,66.0,119.0,-0.29,0.8,0.48,19.0,-10.0,14.0,ga
82.0,0.0,138.0,18.0,105.0,33.0,66.0,119.0,-0.28,0.82,0.48,22.0,-13.0,18.0,ga
80.0,0.0,137.0,18.0,105.0,33.0,78.0,119.0,-0.25,0.83,0.46,24.0,-14.0,21.0,ga
82.0,0.0,137.0,19.0,108.0,33.0,81.0,119.0,-0.23,0.85,0.44,22.0,-11.0,23.0,ga
82.0,0.0,137.0,18.0,111.0,31.0,83.0,117.0,-0.2,0.86,0.43,22.0,-14.0,23.0,ga
82.0,0.0,138.0,18.0,102.0,33.0,88.0,117.0,-0.18,0.87,0.41,19.0,-9.0,23.0,ga
84.0,0.0,138.0,19.0,105.0,33.0,90.0,117.0,-0.15,0.88,0.4,19.0,-10.0,23.0,ga
84.0,0.0,138.0,19.0,99.0,33.0,90.0,114.0,-0.14,0.89,0.38,17.0,-8.0,22.0,ga
88.0,0.0,138.0,19.0,114.0,34.0,90.0,114.0,-0.11,0.9,0.37,17.0,-10.0,23.0,ga
84.0,0.0,138.0,19.0,117.0,34.0,90.0,114.0,-0.09,0.91,0.36,16.0,-9.0,22.0,ga
88.0,0.0,138.0,19.0,126.0,33.0,97.0,114.0,-0.06,0.92,0.35,14.0,-10.0,21.0,ga
86.0,0.0,137.0,23.0,123.0,34.0,95.0,114.0,-0.03,0.92,0.33,14.0,-7.0,19.0,ga
86.0,0.0,138.0,24.0,123.0,34.0,95.0,119.0,-0.01,0.93,0.31,13.0,-6.0,16.0,ga
88.0,0.0,138.0,23.0,120.0,34.0,93.0,117.0,0.01,0.93,0.3,11.0,-5.0,13.0,ga
88.0,0.0,138.0,23.0,123.0,33.0,93.0,119.0,0.02,0.94,0.29,10.0,-3.0,11.0,ga
86.0,0.0,138.0,23.0,126.0,33.0,90.0,119.0,0.03,0.95,0.28,8.0,-2.0,9.0,ga
84.0,0.0,138.0,22.0,126.0,34.0,88.0,119.0,0.04,0.95,0.27,5.0,-1.0,7.0,ga
84.0,0.0,138.0,22.0,126.0,33.0,93.0,119.0,0.05,0.95,0.26,1.0,1.0,4.0,ga
86.0,0.0,137.0,21.0,114.0,33.0,95.0,122.0,0.05,0.95,0.27,0.0,2.0,2.0,ga
86.0,0.0,140.0,22.0,111.0,33.0,95.0,124.0,0.05,0.95,0.27,-2.0,3.0,0.0,ga
90.0,0.0,140.0,23.0,99.0,34.0,90.0,124.0,0.05,0.95,0.27,0.0,3.0,-3.0,ga
88.0,0.0,140.0,22.0,105.0,34.0,88.0,124.0,0.04,0.95,0.27,-1.0,4.0,-6.0,ga
90.0,0.0,141.0,21.0,102.0,33.0,93.0,122.0,0.04,0.95,0.27,0.0,5.0,-8.0,ga
88.0,0.0,141.0,21.0,102.0,33.0,93.0,122.0,0.03,0.95,0.27,1.0,7.0,-10.0,ga
88.0,0.0,140.0,21.0,102.0,33.0,90.0,119.0,0.02,0.95,0.27,2.0,9.0,-13.0,ga
90.0,0.0,139.0,21.0,105.0,33.0,85.0,122.0,0.0,0.95,0.26,4.0,10.0,-15.0,ga
90.0,0.0,139.0,21.0,108.0,33.0,85.0,124.0,-0.02,0.95,0.26,8.0,10.0,-16.0,ga
92.0,0.0,139.0,21.0,108.0,33.0,81.0,124.0,-0.04,0.95,0.25,12.0,8.0,-16.0,ga
90.0,0.0,140.0,21.0,111.0,33.0,76.0,124.0,-0.05,0.95,0.23,15.0,7.0,-15.0,ga
92.0,0.0,138.0,22.0,117.0,33.0,73.0,124.0,-0.07,0.96,0.21,14.0,6.0,-15.0,ga
90.0,0.0,138.0,21.0,120.0,33.0,73.0,127.0,-0.09,0.96,0.2,13.0,7.0,-14.0,ga
90.0,0.0,138.0,21.0,117.0,31.0,78.0,129.0,-0.1,0.96,0.19,10.0,5.0,-11.0,ga
92.0,0.0,138.0,21.0,117.0,33.0,76.0,129.0,-0.12,0.96,0.18,5.0,4.0,-8.0,ga
92.0,0.0,139.0,22.0,120.0,33.0,73.0,127.0,-0.12,0.96,0.18,0.0,2.0,-5.0,ga
90.0,0.0,139.0,23.0,117.0,39.0,73.0,129.0,-0.12,0.96,0.18,-9.0,0.0,-2.0,ga
88.0,0.0,140.0,23.0,117.0,40.0,76.0,127.0,-0.12,0.96,0.19,-16.0,-3.0,1.0,ga
88.0,0.0,140.0,26.0,117.0,39.0,81.0,127.0,-0.11,0.96,0.21,-22.0,-4.0,3.0,ga
88.0,0.0,139.0,25.0,111.0,39.0,76.0,127.0,-0.11,0.95,0.24,-27.0,-6.0,4.0,ga
88.0,0.0,138.0,24.0,111.0,39.0,81.0,124.0,-0.1,0.94,0.27,-31.0,-7.0,5.0,ga
86.0,0.0,138.0,23.0,105.0,39.0,81.0,122.0,-0.09,0.93,0.3,-31.0,-8.0,6.0,ga
84.0,0.0,138.0,20.0,108.0,39.0,78.0,119.0,-0.08,0.92,0.32,-31.0,-9.0,6.0,ga
86.0,0.0,138.0,20.0,111.0,40.0,78.0,117.0,-0.07,0.91,0.35,-32.0,-9.0,5.0,ga
84.0,0.0,137.0,20.0,111.0,39.0,78.0,114.0,-0.06,0.9,0.38,-31.0,-7.0,5.0,ga
84.0,0.0,136.0,20.0,108.0,39.0,76.0,117.0,-0.06,0.89,0.4,-29.0,-5.0,7.0,ga
90.0,0.0,136.0,19.0,108.0,33.0,76.0,114.0,-0.06,0.87,0.43,-25.0,-4.0,9.0,ga
88.0,0.0,136.0,20.0,108.0,34.0,73.0,114.0,-0.05,0.87,0.45,-24.0,-2.0,11.0,ga
84.0,0.0,136.0,17.0,105.0,34.0,71.0,111.0,-0.04,0.86,0.47,-22.0,0.0,13.0,ga
80.0,0.0,136.0,17.0,111.0,34.0,76.0,111.0,-0.03,0.85,0.49,-23.0,2.0,14.0,ga
80.0,0.0,136.0,17.0,108.0,34.0,78.0,114.0,-0.01,0.84,0.5,-24.0,4.0,16.0,ga
78.0,0.0,137.0,17.0,111.0,34.0,76.0,111.0,-0.0,0.82,0.53,-25.0,6.0,16.0,ga
76.0,0.0,138.0,20.0,108.0,34.0,78.0,117.0,0.01,0.81,0.55,-22.0,7.0,15.0,ga
76.0,0.0,138.0,21.0,105.0,34.0,73.0,117.0,0.02,0.8,0.57,-15.0,7.0,11.0,ga
72.0,0.0,138.0,21.0,108.0,34.0,76.0,122.0,0.04,0.8,0.58,-7.0,9.0,8.0,ga
72.0,0.0,138.0,21.0,105.0,34.0,81.0,122.0,0.05,0.81,0.57,0.0,10.0,3.0,ga
68.0,0.0,138.0,21.0,108.0,34.0,81.0,122.0,0.04,0.82,0.56,2.0,10.0,-3.0,ga
70.0,0.0,138.0,20.0,108.0,33.0,83.0,122.0,0.04,0.83,0.55,3.0,8.0,-9.0,ga
76.0,0.0,138.0,20.0,108.0,33.0,81.0,122.0,0.03,0.83,0.55,4.0,7.0,-13.0,ga
74.0,0.0,138.0,20.0,105.0,33.0,78.0,119.0,0.01,0.83,0.55,3.0,4.0,-18.0,ga
76.0,0.0,138.0,21.0,102.0,31.0,76.0,119.0,-0.01,0.84,0.55,5.0,3.0,-22.0,ga
74.0,0.0,137.0,21.0,102.0,31.0,78.0,119.0,-0.02,0.84,0.54,3.0,0.0,-24.0,ga
76.0,0.0,138.0,22.0,99.0,31.0,78.0,117.0,-0.04,0.85,0.53,-2.0,-1.0,-25.0,ga
78.0,0.0,138.0,21.0,105.0,31.0,78.0,117.0,-0.06,0.84,0.54,-9.0,-2.0,-24.0,ga
80.0,0.0,138.0,21.0,102.0,31.0,78.0,117.0,-0.09,0.83,0.56,-16.0,-6.0,-22.0,ga
82.0,0.0,137.0,23.0,99.0,31.0,73.0,114.0,-0.1,0.81,0.58,-20.0,-9.0,-21.0,ga
82.0,0.0,137.0,23.0,102.0,31.0,73.0,114.0,-0.1,0.78,0.61,-23.0,-10.0,-18.0,ga
84.0,0.0,137.0,23.0,99.0,31.0,76.0,114.0,-0.11,0.77,0.63,-20.0,-10.0,-16.0,ga
82.0,0.0,136.0,23.0,102.0,31.0,76.0,117.0,-0.11,0.76,0.64,-17.0,-9.0,-14.0,ga
84.0,0.0,137.0,22.0,105.0,31.0,78.0,117.0,-0.11,0.75,0.65,-9.0,-6.0,-11.0,ga
84.0,0.0,136.0,22.0,105.0,31.0,78.0,117.0,-0.1,0.73,0.65,-2.0,-3.0,-6.0,ga
98.0,0.0,136.0,21.0,102.0,31.0,78.0,117.0,-0.11,0.74,0.65,6.0,0.0,-4.0,ga
98.0,0.0,136.0,22.0,96.0,33.0,76.0,114.0,-0.1,0.75,0.64,15.0,3.0,-2.0,ga
96.0,0.0,137.0,21.0,93.0,33.0,81.0,114.0,-0.11,0.76,0.63,20.0,4.0,0.0,ga
96.0,0.0,137.0,22.0,90.0,33.0,81.0,114.0,-0.11,0.78,0.6,26.0,6.0,0.0,ga
92.0,0.0,137.0,21.0,90.0,33.0,78.0,111.0,-0.12,0.79,0.57,30.0,8.0,1.0,ga
92.0,0.0,138.0,20.0,90.0,33.0,83.0,114.0,-0.12,0.81,0.55,34.0,9.0,1.0,ga
90.0,0.0,138.0,20.0,90.0,33.0,83.0,111.0,-0.12,0.82,0.52,36.0,9.0,2.0,ga
90.0,0.0,139.0,20.0,90.0,33.0,85.0,111.0,-0.13,0.85,0.49,36.0,9.0,1.0,ga
92.0,0.0,139.0,20.0,87.0,33.0,83.0,111.0,-0.14,0.86,0.45,35.0,8.0,1.0,ga
90.0,0.0,139.0,21.0,90.0,33.0,81.0,111.0,-0.15,0.88,0.43,33.0,5.0,0.0,ga
78.0,0.0,138.0,21.0,93.0,31.0,78.0,114.0,-0.15,0.89,0.4,30.0,2.0,0.0,ga
78.0,0.0,142.0,20.0,96.0,30.0,78.0,109.0,-0.14,0.9,0.37,28.0,-4.0,1.0,ga
80.0,0.0,142.0,20.0,96.0,30.0,76.0,109.0,-0.14,0.91,0.34,29.0,-6.0,2.0,ga
80.0,0.0,142.0,20.0,96.0,31.0,76.0,106.0,-0.13,0.92,0.32,28.0,-9.0,2.0,ga
80.0,0.0,142.0,19.0,99.0,30.0,76.0,106.0,-0.12,0.93,0.29,27.0,-10.0,2.0,ga
82.0,0.0,141.0,19.0,96.0,31.0,71.0,106.0,-0.11,0.93,0.26,24.0,-9.0,1.0,ga
78.0,0.0,140.0,19.0,96.0,31.0,69.0,106.0,-0.11,0.94,0.24,22.0,-7.0,1.0,ga
78.0,0.0,139.0,19.0,99.0,31.0,69.0,106.0,-0.1,0.95,0.23,18.0,-9.0,1.0,ga
76.0,0.0,139.0,19.0,96.0,30.0,69.0,106.0,-0.09,0.95,0.21,16.0,-12.0,1.0,ga
74.0,0.0,138.0,18.0,96.0,30.0,71.0,106.0,-0.08,0.95,0.2,11.0,-12.0,-2.0,ga
70.0,0.0,135.0,18.0,93.0,31.0,69.0,104.0,-0.07,0.96,0.19,5.0,-8.0,-4.0,ga
64.0,0.0,131.0,18.0,99.0,31.0,71.0,111.0,-0.08,0.96,0.18,0.0,-4.0,-7.0,ga
58.0,0.0,131.0,18.0,99.0,31.0,71.0,109.0,-0.08,0.96,0.19,-7.0,0.0,-9.0,ga
44.0,0.0,130.0,17.0,102.0,31.0,66.0,109.0,-0.09,0.97,0.19,-14.0,3.0,-11.0,ga
46.0,0.0,130.0,17.0,102.0,31.0,69.0,109.0,-0.11,0.96,0.21,-20.0,4.0,-11.0,ga
46.0,0.0,131.0,17.0,102.0,34.0,66.0,109.0,-0.13,0.95,0.23,-27.0,4.0,-10.0,ga
50.0,0.0,131.0,17.0,102.0,34.0,71.0,111.0,-0.14,0.94,0.26,-30.0,3.0,-9.0,ga
50.0,0.0,132.0,17.0,99.0,34.0,71.0,114.0,-0.15,0.93,0.28,-35.0,3.0,-7.0,ga
50.0,0.0,132.0,17.0,111.0,34.0,71.0,114.0,-0.16,0.92,0.31,-40.0,8.0,-4.0,ga
54.0,0.0,134.0,17.0,108.0,34.0,73.0,117.0,-0.17,0.9,0.34,-40.0,8.0,0.0,ga
54.0,0.0,137.0,17.0,111.0,33.0,73.0,122.0,-0.17,0.88,0.38,-39.0,7.0,4.0,ga
62.0,0.0,137.0,16.0,111.0,33.0,76.0,119.0,-0.17,0.87,0.41,-36.0,5.0,8.0,ga
66.0,0.0,137.0,16.0,111.0,33.0,73.0,119.0,-0.16,0.85,0.44,-32.0,3.0,12.0,ga
78.0,0.0,137.0,16.0,111.0,33.0,76.0,122.0,-0.14,0.84,0.47,-23.0,1.0,17.0,ga
80.0,0.0,137.0,16.0,111.0,33.0,76.0,122.0,-0.12,0.83,0.48,-13.0,0.0,20.0,ga
76.0,0.0,137.0,16.0,111.0,30.0,78.0,122.0,-0.09,0.83,0.49,-1.0,-1.0,20.0,ga
78.0,0.0,138.0,16.0,108.0,30.0,81.0,119.0,-0.07,0.84,0.48,7.0,-1.0,20.0,ga
80.0,0.0,137.0,16.0,105.0,34.0,78.0,117.0,-0.05,0.85,0.47,17.0,1.0,19.0,ga
80.0,0.0,137.0,16.0,96.0,36.0,78.0,117.0,-0.03,0.86,0.45,26.0,2.0,16.0,ga
82.0,0.0,137.0,16.0,99.0,36.0,73.0,111.0,-0.01,0.88,0.42,30.0,5.0,13.0,ga
82.0,0.0,137.0,17.0,90.0,37.0,76.0,111.0,-0.0,0.9,0.39,34.0,7.0,10.0,ga
82.0,0.0,137.0,18.0,90.0,37.0,73.0,111.0,0.01,0.92,0.35,32.0,10.0,5.0,ga
82.0,0.0,137.0,19.0,87.0,39.0,76.0,111.0,0.01,0.93,0.33,30.0,12.0,1.0,ga
84.0,0.0,137.0,20.0,87.0,39.0,78.0,111.0,-0.0,0.94,0.29,25.0,17.0,-5.0,ga
82.0,0.0,137.0,19.0,75.0,39.0,76.0,109.0,-0.01,0.95,0.27,19.0,16.0,-9.0,ga
82.0,0.0,137.0,19.0,84.0,37.0,76.0,111.0,-0.04,0.96,0.26,11.0,18.0,-12.0,ga
70.0,0.0,136.0,19.0,84.0,37.0,73.0,114.0,-0.05,0.96,0.25,4.0,16.0,-14.0,ga
68.0,0.0,136.0,19.0,90.0,33.0,76.0,114.0,-0.07,0.95,0.24,-3.0,14.0,-15.0,ga
72.0,0.0,137.0,19.0,90.0,33.0,76.0,104.0,-0.09,0.95,0.25,-11.0,12.0,-15.0,ga
70.0,0.0,137.0,19.0,87.0,33.0,71.0,104.0,-0.11,0.94,0.26,-15.0,10.0,-14.0,ga
68.0,0.0,138.0,18.0,96.0,31.0,71.0,104.0,-0.13,0.93,0.28,-17.0,9.0,-13.0,ga
70.0,0.0,137.0,18.0,93.0,33.0,69.0,104.0,-0.14,0.92,0.3,-16.0,7.0,-10.0,ga
70.0,0.0,137.0,17.0,96.0,31.0,71.0,106.0,-0.15,0.91,0.31,-16.0,5.0,-8.0,ga
72.0,0.0,137.0,17.0,96.0,31.0,69.0,106.0,-0.16,0.91,0.32,-15.0,0.0,-5.0,ga
70.0,0.0,136.0,17.0,105.0,33.0,66.0,106.0,-0.15,0.91,0.33,-14.0,1.0,-3.0,ga
70.0,0.0,137.0,17.0,102.0,33.0,69.0,104.0,-0.15,0.91,0.34,-14.0,0.0,-1.0,ga
82.0,0.0,138.0,17.0,96.0,33.0,69.0,109.0,-0.15,0.9,0.35,-12.0,3.0,-1.0,ga
80.0,0.0,138.0,17.0,96.0,33.0,69.0,106.0,-0.15,0.9,0.36,-12.0,5.0,-2.0,ga
80.0,0.0,137.0,17.0,96.0,33.0,66.0,117.0,-0.15,0.89,0.37,-8.0,5.0,-3.0,ga
76.0,0.0,137.0,17.0,99.0,31.0,71.0,117.0,-0.15,0.89,0.37,-7.0,6.0,-5.0,ga
78.0,0.0,136.0,17.0,93.0,31.0,69.0,117.0,-0.16,0.89,0.37,-8.0,7.0,-6.0,ga
76.0,0.0,136.0,16.0,93.0,30.0,71.0,119.0,-0.17,0.89,0.39,-8.0,7.0,-6.0,ga
76.0,0.0,137.0,17.0,90.0,31.0,69.0,117.0,-0.18,0.89,0.4,-7.0,7.0,-5.0,ga
74.0,0.0,137.0,17.0,87.0,31.0,71.0,117.0,-0.18,0.88,0.4,-5.0,6.0,-2.0,ga
74.0,0.0,138.0,18.0,87.0,31.0,76.0,119.0,-0.18,0.88,0.4,-2.0,6.0,0.0,ga
76.0,0.0,137.0,18.0,87.0,31.0,73.0,117.0,-0.19,0.88,0.4,1.0,5.0,2.0,ga
76.0,0.0,137.0,18.0,87.0,30.0,69.0,117.0,-0.19,0.88,0.4,5.0,2.0,6.0,ga
78.0,0.0,137.0,19.0,84.0,30.0,71.0,117.0,-0.18,0.88,0.39,9.0,0.0,11.0,ga
74.0,0.0,137.0,19.0,81.0,30.0,76.0,117.0,-0.16,0.89,0.38,11.0,0.0,14.0,ga
78.0,0.0,138.0,19.0,81.0,31.0,78.0,117.0,-0.14,0.9,0.37,11.0,-1.0,16.0,ga
76.0,0.0,137.0,19.0,84.0,31.0,81.0,119.0,-0.12,0.9,0.35,12.0,0.0,17.0,ga
76.0,0.0,138.0,20.0,87.0,34.0,81.0,117.0,-0.1,0.92,0.34,10.0,0.0,15.0,ga
78.0,0.0,137.0,20.0,72.0,34.0,81.0,117.0,-0.09,0.92,0.33,7.0,-2.0,11.0,ga
78.0,0.0,137.0,20.0,72.0,34.0,76.0,114.0,-0.07,0.93,0.33,2.0,-1.0,7.0,ga
80.0,0.0,137.0,20.0,72.0,31.0,76.0,117.0,-0.07,0.93,0.33,-3.0,-2.0,4.0,ga
78.0,0.0,137.0,20.0,75.0,31.0,73.0,119.0,-0.07,0.93,0.33,-11.0,-3.0,2.0,ga
78.0,0.0,137.0,20.0,84.0,31.0,76.0,117.0,-0.06,0.93,0.34,-16.0,-2.0,0.0,ga
78.0,0.0,136.0,19.0,90.0,31.0,85.0,119.0,-0.06,0.91,0.36,-19.0,-2.0,-3.0,ga
78.0,0.0,137.0,19.0,90.0,30.0,85.0,119.0,-0.07,0.91,0.38,-18.0,-1.0,-5.0,ga
82.0,0.0,137.0,19.0,90.0,28.0,88.0,122.0,-0.07,0.9,0.39,-13.0,0.0,-5.0,ga
82.0,0.0,137.0,19.0,93.0,28.0,90.0,119.0,-0.07,0.89,0.4,-9.0,-1.0,-6.0,ga
84.0,0.0,136.0,19.0,96.0,27.0,90.0,122.0,-0.08,0.89,0.4,-5.0,0.0,-5.0,ga
90.0,0.0,136.0,20.0,111.0,27.0,90.0,122.0,-0.08,0.9,0.4,-3.0,1.0,-4.0,ga
90.0,0.0,137.0,19.0,111.0,27.0,95.0,124.0,-0.08,0.89,0.4,1.0,2.0,-2.0,ga
90.0,0.0,136.0,19.0,108.0,30.0,88.0,124.0,-0.08,0.89,0.4,8.0,3.0,-3.0,ga
90.0,0.0,136.0,19.0,108.0,30.0,90.0,124.0,-0.08,0.89,0.39,19.0,4.0,-3.0,ga
92.0,0.0,136.0,19.0,108.0,30.0,90.0,124.0,-0.08,0.9,0.36,25.0,4.0,-4.0,ga
90.0,0.0,136.0,18.0,105.0,28.0,78.0,122.0,-0.08,0.92,0.33,28.0,5.0,-4.0,ga
90.0,0.0,136.0,18.0,108.0,30.0,78.0,122.0,-0.09,0.93,0.29,24.0,4.0,-4.0,ga
88.0,0.0,135.0,18.0,108.0,30.0,73.0,122.0,-0.1,0.95,0.28,14.0,4.0,-4.0,ga
88.0,0.0,136.0,19.0,105.0,30.0,71.0,119.0,-0.1,0.95,0.28,5.0,4.0,-3.0,ga
88.0,0.0,136.0,18.0,102.0,31.0,66.0,117.0,-0.1,0.95,0.28,1.0,2.0,0.0,ga
80.0,0.0,136.0,17.0,105.0,28.0,66.0,119.0,-0.1,0.94,0.28,-2.0,1.0,0.0,ga
80.0,0.0,135.0,16.0,108.0,28.0,64.0,119.0,-0.1,0.94,0.27,-4.0,2.0,-3.0,ga
76.0,0.0,135.0,16.0,102.0,28.0,69.0,117.0,-0.1,0.94,0.27,-10.0,5.0,-6.0,ga
76.0,0.0,134.0,15.0,102.0,28.0,66.0,117.0,-0.1,0.94,0.28,-16.0,5.0,-6.0,ga
74.0,0.0,135.0,13.0,99.0,30.0,64.0,117.0,-0.11,0.93,0.29,-21.0,7.0,-9.0,ga
70.0,0.0,135.0,13.0,96.0,30.0,64.0,114.0,-0.13,0.92,0.32,-20.0,6.0,-9.0,ga
74.0,0.0,134.0,13.0,87.0,31.0,64.0,111.0,-0.14,0.91,0.34,-17.0,5.0,-7.0,ga
74.0,0.0,134.0,15.0,90.0,31.0,66.0,114.0,-0.14,0.91,0.35,-12.0,3.0,-4.0,ga
84.0,0.0,134.0,15.0,90.0,31.0,64.0,114.0,-0.14,0.9,0.34,-4.0,2.0,-2.0,ga
84.0,0.0,135.0,13.0,90.0,31.0,66.0,122.0,-0.14,0.91,0.34,-2.0,2.0,-2.0,ga
84.0,0.0,135.0,13.0,87.0,33.0,66.0,119.0,-0.14,0.91,0.34,0.0,3.0,0.0,ga
84.0,0.0,135.0,13.0,87.0,33.0,64.0,119.0,-0.14,0.91,0.35,3.0,1.0,2.0,ga
84.0,0.0,136.0,13.0,102.0,33.0,69.0,119.0,-0.14,0.9,0.35,10.0,-1.0,5.0,ga
88.0,0.0,136.0,14.0,96.0,33.0,71.0,117.0,-0.14,0.91,0.33,15.0,-3.0,6.0,ga
86.0,0.0,136.0,16.0,96.0,34.0,71.0,114.0,-0.13,0.93,0.32,19.0,-5.0,9.0,ga
88.0,0.0,137.0,16.0,96.0,34.0,73.0,117.0,-0.11,0.94,0.29,16.0,-4.0,8.0,ga
86.0,0.0,137.0,15.0,102.0,31.0,71.0,117.0,-0.1,0.95,0.27,11.0,-2.0,6.0,ga
88.0,0.0,137.0,14.0,102.0,31.0,71.0,119.0,-0.09,0.94,0.27,3.0,-2.0,5.0,ga
80.0,0.0,138.0,14.0,102.0,31.0,73.0,119.0,-0.09,0.94,0.28,-2.0,-2.0,3.0,ga
78.0,0.0,137.0,18.0,105.0,30.0,69.0,111.0,-0.08,0.93,0.28,-4.0,-1.0,1.0,ga
80.0,0.0,137.0,19.0,99.0,31.0,73.0,111.0,-0.09,0.93,0.28,-4.0,-2.0,0.0,ga
72.0,0.0,137.0,18.0,105.0,30.0,71.0,114.0,-0.09,0.93,0.28,-7.0,0.0,0.0,ga
72.0,0.0,137.0,19.0,99.0,31.0,73.0,114.0,-0.08,0.93,0.29,-12.0,0.0,0.0,ga
72.0,0.0,137.0,19.0,105.0,30.0,71.0,114.0,-0.08,0.93,0.3,-15.0,1.0,1.0,ga
72.0,0.0,137.0,19.0,108.0,28.0,69.0,117.0,-0.08,0.92,0.32,-17.0,1.0,1.0,ga
74.0,0.0,137.0,20.0,111.0,28.0,66.0,117.0,-0.08,0.92,0.34,-18.0,0.0,2.0,ga
72.0,0.0,137.0,20.0,111.0,27.0,66.0,119.0,-0.08,0.9,0.35,-17.0,0.0,3.0,ga
72.0,0.0,137.0,20.0,114.0,27.0,66.0,117.0,-0.07,0.92,0.36,-14.0,2.0,1.0,ga
70.0,0.0,136.0,20.0,111.0,28.0,66.0,114.0,-0.07,0.91,0.36,-14.0,1.0,0.0,ga
68.0,0.0,137.0,19.0,117.0,27.0,69.0,114.0,-0.07,0.91,0.38,-12.0,2.0,0.0,ga
70.0,0.0,137.0,19.0,117.0,27.0,69.0,111.0,-0.07,0.91,0.39,-9.0,2.0,1.0,ga
74.0,0.0,137.0,20.0,114.0,27.0,71.0,109.0,-0.07,0.9,0.39,-4.0,2.0,0.0,ga
76.0,0.0,136.0,19.0,114.0,27.0,62.0,114.0,-0.07,0.9,0.39,-3.0,2.0,-2.0,ga
76.0,0.0,136.0,19.0,114.0,28.0,62.0,114.0,-0.07,0.9,0.39,-4.0,3.0,-4.0,ga
76.0,0.0,137.0,18.0,108.0,28.0,64.0,114.0,-0.07,0.89,0.4,-6.0,5.0,-7.0,ga
76.0,0.0,137.0,19.0,105.0,30.0,69.0,111.0,-0.08,0.89,0.4,-4.0,8.0,-10.0,ga
76.0,0.0,137.0,19.0,99.0,34.0,71.0,109.0,-0.1,0.89,0.4,-2.0,6.0,-11.0,ga
76.0,0.0,137.0,18.0,96.0,36.0,69.0,104.0,-0.11,0.89,0.41,2.0,5.0,-10.0,ga
72.0,0.0,137.0,16.0,102.0,34.0,71.0,104.0,-0.12,0.89,0.4,8.0,5.0,-8.0,ga
76.0,0.0,137.0,16.0,99.0,36.0,71.0,106.0,-0.13,0.89,0.39,8.0,5.0,-6.0,ga
76.0,0.0,137.0,17.0,96.0,36.0,69.0,106.0,-0.14,0.9,0.38,7.0,3.0,-2.0,ga
76.0,0.0,138.0,17.0,90.0,34.0,71.0,109.0,-0.14,0.9,0.37,5.0,3.0,3.0,ga
74.0,0.0,138.0,19.0,90.0,34.0,78.0,106.0,-0.13,0.9,0.37,6.0,3.0,5.0,ga
72.0,0.0,138.0,19.0,90.0,34.0,81.0,106.0,-0.13,0.9,0.37,8.0,0.0,9.0,ga
72.0,0.0,137.0,19.0,90.0,36.0,78.0,101.0,-0.12,0.91,0.36,11.0,-3.0,15.0,ga
68.0,0.0,137.0,19.0,90.0,34.0,76.0,101.0,-0.1,0.92,0.35,14.0,-5.0,20.0,ga
68.0,0.0,137.0,19.0,96.0,30.0,78.0,104.0,-0.07,0.93,0.33,14.0,-3.0,21.0,ga
68.0,0.0,137.0,19.0,96.0,30.0,78.0,106.0,-0.05,0.94,0.31,12.0,-2.0,19.0,ga
68.0,0.0,137.0,20.0,93.0,30.0,69.0,109.0,-0.03,0.94,0.3,7.0,0.0,14.0,ga
68.0,0.0,137.0,20.0,93.0,30.0,69.0,109.0,-0.01,0.94,0.3,2.0,2.0,7.0,ga
68.0,0.0,137.0,18.0,96.0,30.0,71.0,109.0,-0.01,0.95,0.3,-1.0,4.0,0.0,ga
70.0,0.0,137.0,18.0,102.0,31.0,71.0,106.0,-0.02,0.95,0.3,-5.0,4.0,-5.0,ga
66.0,0.0,137.0,17.0,102.0,31.0,73.0,109.0,-0.03,0.95,0.31,-7.0,4.0,-6.0,ga
68.0,0.0,138.0,18.0,102.0,31.0,76.0,109.0,-0.03,0.94,0.31,-7.0,5.0,-7.0,ga
68.0,0.0,138.0,18.0,102.0,31.0,71.0,114.0,-0.04,0.94,0.31,-8.0,6.0,-10.0,ga
70.0,0.0,137.0,19.0,102.0,31.0,71.0,114.0,-0.05,0.94,0.32,-10.0,7.0,-12.0,ga
72.0,0.0,135.0,19.0,96.0,31.0,71.0,111.0,-0.06,0.94,0.33,-11.0,6.0,-12.0,ga
70.0,0.0,135.0,19.0,96.0,31.0,73.0,114.0,-0.07,0.93,0.34,-9.0,6.0,-10.0,ga
72.0,0.0,135.0,19.0,96.0,31.0,85.0,114.0,-0.08,0.92,0.35,-8.0,6.0,-8.0,ga
72.0,0.0,135.0,20.0,99.0,30.0,85.0,111.0,-0.09,0.93,0.36,-4.0,5.0,-3.0,ga
74.0,0.0,136.0,20.0,96.0,30.0,85.0,114.0,-0.09,0.92,0.35,-2.0,3.0,0.0,ga
72.0,0.0,136.0,20.0,96.0,30.0,83.0,114.0,-0.08,0.92,0.35,0.0,3.0,1.0,ga
84.0,0.0,136.0,19.0,99.0,30.0,83.0,111.0,-0.08,0.92,0.35,0.0,3.0,0.0,ga
86.0,0.0,136.0,19.0,96.0,30.0,78.0,111.0,-0.08,0.93,0.35,-2.0,3.0,0.0,ga
90.0,0.0,136.0,19.0,99.0,30.0,81.0,111.0,-0.08,0.93,0.35,-3.0,4.0,-2.0,ga
92.0,0.0,137.0,18.0,93.0,30.0,81.0,114.0,-0.08,0.92,0.35,-2.0,4.0,-2.0,ga
86.0,0.0,139.0,18.0,96.0,31.0,78.0,114.0,-0.09,0.92,0.35,-2.0,3.0,-3.0,ga
88.0,0.0,140.0,19.0,96.0,30.0,83.0,114.0,-0.1,0.92,0.35,-2.0,2.0,-3.0,ga
88.0,0.0,139.0,19.0,96.0,30.0,81.0,114.0,-0.09,0.92,0.35,-2.0,1.0,-3.0,ga
82.0,0.0,140.0,19.0,93.0,31.0,81.0,111.0,-0.1,0.92,0.35,-1.0,1.0,-4.0,ga
84.0,0.0,139.0,18.0,99.0,31.0,81.0,111.0,-0.1,0.92,0.35,-2.0,1.0,-5.0,ga
82.0,0.0,138.0,19.0,99.0,31.0,76.0,111.0,-0.1,0.92,0.35,-4.0,1.0,-3.0,ga
76.0,0.0,139.0,19.0,96.0,31.0,78.0,111.0,-0.1,0.92,0.35,-4.0,1.0,-3.0,ga
76.0,0.0,138.0,19.0,96.0,30.0,83.0,111.0,-0.11,0.91,0.35,-3.0,1.0,-3.0,ga
68.0,0.0,139.0,19.0,93.0,31.0,83.0,114.0,-0.11,0.91,0.35,-3.0,1.0,-2.0,ga
68.0,0.0,138.0,19.0,96.0,31.0,83.0,111.0,-0.11,0.92,0.36,-3.0,0.0,-1.0,ga
70.0,0.0,138.0,19.0,96.0,30.0,83.0,111.0,-0.1,0.91,0.36,-2.0,0.0,0.0,ga
70.0,0.0,138.0,18.0,96.0,27.0,81.0,111.0,-0.11,0.91,0.36,-2.0,0.0,-1.0,ga
68.0,0.0,138.0,17.0,96.0,27.0,81.0,111.0,-0.11,0.92,0.35,-2.0,1.0,0.0,ga
74.0,0.0,137.0,18.0,102.0,27.0,78.0,111.0,-0.1,0.92,0.36,-3.0,1.0,0.0,ga
72.0,0.0,137.0,18.0,96.0,27.0,76.0,111.0,-0.1,0.91,0.36,-2.0,1.0,0.0,ga
72.0,0.0,137.0,15.0,96.0,27.0,78.0,114.0,-0.1,0.91,0.35,-1.0,2.0,0.0,ga
70.0,0.0,137.0,16.0,96.0,25.0,78.0,114.0,-0.1,0.92,0.35,-1.0,1.0,0.0,ga
68.0,0.0,137.0,16.0,102.0,27.0,59.0,114.0,-0.09,0.92,0.36,-2.0,1.0,0.0,ga
74.0,0.0,138.0,16.0,102.0,27.0,59.0,111.0,-0.1,0.92,0.36,0.0,1.0,0.0,ga
72.0,0.0,138.0,16.0,102.0,27.0,62.0,114.0,-0.1,0.92,0.35,0.0,2.0,0.0,ga
72.0,0.0,138.0,16.0,102.0,27.0,59.0,114.0,-0.09,0.92,0.35,-2.0,2.0,1.0,ga
72.0,0.0,138.0,17.0,96.0,31.0,59.0,111.0,-0.09,0.92,0.35,-2.0,2.0,1.0,ga
72.0,0.0,138.0,17.0,96.0,31.0,59.0,114.0,-0.09,0.91,0.35,-2.0,2.0,0.0,ga
74.0,0.0,138.0,14.0,93.0,31.0,59.0,111.0,-0.09,0.91,0.35,-2.0,2.0,0.0,ga
74.0,0.0,138.0,14.0,99.0,30.0,57.0,114.0,-0.09,0.92,0.36,-3.0,2.0,0.0,ga
78.0,0.0,138.0,17.0,99.0,30.0,59.0,111.0,-0.09,0.92,0.36,-5.0,1.0,0.0,ga
58.0,0.0,138.0,16.0,99.0,31.0,59.0,111.0,-0.09,0.91,0.36,-5.0,1.0,-1.0,ga
60.0,0.0,138.0,16.0,99.0,30.0,81.0,111.0,-0.1,0.91,0.36,-9.0,1.0,-1.0,ga
58.0,0.0,137.0,17.0,102.0,30.0,83.0,114.0,-0.09,0.9,0.38,-10.0,0.0,0.0,ga
58.0,0.0,137.0,17.0,102.0,30.0,83.0,111.0,-0.09,0.9,0.39,-10.0,0.0,0.0,ga
60.0,0.0,136.0,17.0,105.0,30.0,81.0,111.0,-0.09,0.89,0.4,-7.0,1.0,-1.0,ga
58.0,0.0,136.0,17.0,111.0,28.0,81.0,114.0,-0.1,0.89,0.4,-4.0,1.0,-1.0,ga
58.0,0.0,135.0,17.0,111.0,30.0,81.0,111.0,-0.09,0.89,0.4,0.0,1.0,0.0,ga
56.0,0.0,135.0,18.0,111.0,30.0,78.0,111.0,-0.09,0.89,0.4,1.0,1.0,-2.0,ga
64.0,0.0,136.0,19.0,108.0,31.0,78.0,111.0,-0.1,0.9,0.39,2.0,2.0,-2.0,ga
64.0,0.0,136.0,19.0,105.0,31.0,76.0,111.0,-0.1,0.9,0.39,4.0,2.0,0.0,ga
74.0,0.0,135.0,19.0,108.0,31.0,76.0,111.0,-0.1,0.9,0.39,6.0,2.0,0.0,ga
76.0,0.0,135.0,19.0,102.0,33.0,69.0,111.0,-0.1,0.9,0.38,10.0,3.0,0.0,ga
74.0,0.0,135.0,17.0,105.0,31.0,66.0,109.0,-0.1,0.91,0.37,11.0,3.0,0.0,ga
76.0,0.0,136.0,17.0,105.0,31.0,64.0,114.0,-0.1,0.92,0.35,11.0,3.0,0.0,ga
74.0,0.0,136.0,17.0,105.0,31.0,62.0,114.0,-0.09,0.93,0.34,9.0,2.0,0.0,ga
76.0,0.0,137.0,17.0,102.0,31.0,64.0,106.0,-0.1,0.93,0.33,6.0,2.0,-1.0,ga
78.0,0.0,137.0,16.0,96.0,30.0,62.0,104.0,-0.1,0.93,0.32,3.0,2.0,-1.0,ga
78.0,0.0,138.0,16.0,90.0,30.0,81.0,104.0,-0.09,0.94,0.33,0.0,1.0,0.0,ga
70.0,0.0,137.0,16.0,90.0,30.0,83.0,101.0,-0.09,0.93,0.33,0.0,1.0,0.0,ga
68.0,0.0,136.0,16.0,90.0,30.0,81.0,104.0,-0.09,0.93,0.32,-1.0,1.0,0.0,ga
78.0,0.0,137.0,14.0,87.0,30.0,93.0,104.0,-0.09,0.93,0.32,-1.0,2.0,0.0,ga
80.0,0.0,138.0,14.0,87.0,30.0,97.0,101.0,-0.09,0.93,0.32,-4.0,0.0,0.0,ga
94.0,0.0,138.0,14.0,87.0,30.0,97.0,104.0,-0.08,0.93,0.32,-5.0,1.0,0.0,ga
96.0,0.0,138.0,14.0,84.0,30.0,100.0,104.0,-0.09,0.93,0.33,-7.0,1.0,0.0,ga
94.0,0.0,139.0,14.0,72.0,31.0,102.0,104.0,-0.09,0.93,0.34,-8.0,1.0,0.0,ga
96.0,0.0,140.0,14.0,69.0,31.0,93.0,109.0,-0.08,0.92,0.35,-8.0,0.0,1.0,ga
94.0,0.0,139.0,15.0,75.0,31.0,90.0,109.0,-0.08,0.92,0.35,-8.0,0.0,1.0,ga
92.0,0.0,140.0,16.0,81.0,31.0,76.0,109.0,-0.08,0.91,0.36,-7.0,0.0,0.0,ga
94.0,0.0,140.0,17.0,81.0,31.0,76.0,111.0,-0.08,0.91,0.36,-8.0,0.0,1.0,ga
92.0,0.0,140.0,17.0,87.0,31.0,78.0,111.0,-0.07,0.91,0.37,-7.0,1.0,1.0,ga
94.0,0.0,141.0,19.0,90.0,31.0,69.0,111.0,-0.07,0.91,0.37,-8.0,1.0,1.0,ga
90.0,0.0,140.0,19.0,99.0,31.0,66.0,111.0,-0.08,0.91,0.38,-9.0,2.0,0.0,ga
78.0,0.0,141.0,21.0,99.0,33.0,73.0,111.0,-0.07,0.91,0.39,-9.0,2.0,1.0,ga
78.0,0.0,140.0,21.0,99.0,31.0,73.0,111.0,-0.07,0.9,0.4,-8.0,2.0,1.0,ga
78.0,0.0,140.0,23.0,117.0,31.0,76.0,111.0,-0.07,0.9,0.4,-7.0,2.0,1.0,ga
80.0,0.0,141.0,23.0,120.0,31.0,88.0,114.0,-0.07,0.9,0.41,-6.0,3.0,1.0,ga
78.0,0.0,142.0,25.0,123.0,30.0,107.0,114.0,-0.07,0.9,0.42,-7.0,2.0,1.0,ga
80.0,0.0,142.0,26.0,120.0,30.0,109.0,106.0,-0.06,0.89,0.42,-5.0,3.0,1.0,ga
76.0,0.0,138.0,26.0,123.0,28.0,112.0,106.0,-0.07,0.9,0.42,-5.0,4.0,0.0,ga
78.0,0.0,140.0,30.0,117.0,30.0,119.0,106.0,-0.07,0.89,0.42,-7.0,4.0,0.0,ga
76.0,0.0,140.0,30.0,114.0,30.0,119.0,106.0,-0.07,0.9,0.43,-11.0,3.0,1.0,ga
76.0,0.0,140.0,31.0,111.0,30.0,121.0,111.0,-0.07,0.88,0.44,-10.0,3.0,1.0,ga
76.0,0.0,139.0,30.0,108.0,34.0,116.0,109.0,-0.07,0.88,0.45,-9.0,4.0,0.0,ga
72.0,0.0,140.0,30.0,111.0,34.0,121.0,106.0,-0.07,0.88,0.46,-8.0,4.0,0.0,ga
68.0,0.0,139.0,30.0,105.0,34.0,121.0,106.0,-0.07,0.88,0.46,-6.0,4.0,0.0,ga
66.0,0.0,138.0,30.0,108.0,33.0,119.0,106.0,-0.07,0.87,0.46,-3.0,4.0,0.0,ga
68.0,0.0,138.0,29.0,99.0,34.0,107.0,106.0,-0.07,0.88,0.45,0.0,5.0,-1.0,ga
68.0,0.0,140.0,29.0,102.0,34.0,109.0,117.0,-0.07,0.88,0.46,0.0,5.0,-1.0,ga
70.0,0.0,147.0,29.0,99.0,34.0,107.0,114.0,-0.07,0.88,0.46,3.0,4.0,0.0,ga
72.0,0.0,146.0,26.0,99.0,36.0,105.0,114.0,-0.07,0.88,0.45,7.0,4.0,-2.0,ga
72.0,0.0,147.0,26.0,99.0,36.0,107.0,114.0,-0.07,0.88,0.44,11.0,4.0,-3.0,ga
74.0,0.0,147.0,26.0,96.0,37.0,105.0,111.0,-0.08,0.89,0.43,14.0,3.0,-3.0,ga
74.0,0.0,147.0,26.0,96.0,34.0,107.0,111.0,-0.07,0.9,0.4,14.0,3.0,-3.0,ga
76.0,0.0,148.0,26.0,90.0,36.0,107.0,111.0,-0.08,0.91,0.39,14.0,3.0,-3.0,ga
82.0,0.0,148.0,26.0,93.0,36.0,109.0,111.0,-0.08,0.92,0.37,12.0,3.0,-4.0,ga
82.0,0.0,151.0,27.0,90.0,36.0,107.0,114.0,-0.08,0.92,0.37,11.0,0.0,-3.0,ga
82.0,0.0,151.0,26.0,102.0,36.0,105.0,111.0,-0.08,0.92,0.36,9.0,-2.0,-3.0,ga
80.0,0.0,152.0,25.0,96.0,34.0,102.0,111.0,-0.09,0.92,0.35,9.0,-3.0,-3.0,ga
80.0,0.0,149.0,24.0,96.0,34.0,97.0,114.0,-0.09,0.93,0.33,8.0,-4.0,-2.0,ga
80.0,0.0,151.0,23.0,96.0,33.0,95.0,117.0,-0.08,0.93,0.34,7.0,-5.0,-1.0,ga
80.0,0.0,152.0,22.0,99.0,33.0,95.0,117.0,-0.08,0.92,0.33,7.0,-5.0,-1.0,ga
80.0,0.0,153.0,20.0,99.0,33.0,90.0,117.0,-0.08,0.93,0.32,7.0,-3.0,-2.0,ga
80.0,0.0,155.0,19.0,102.0,31.0,93.0,117.0,-0.08,0.93,0.31,6.0,-3.0,-2.0,ga
82.0,0.0,155.0,18.0,102.0,31.0,88.0,114.0,-0.08,0.93,0.31,5.0,-2.0,-1.0,ga
80.0,0.0,155.0,17.0,120.0,30.0,95.0,114.0,-0.08,0.92,0.3,4.0,-2.0,-1.0,ga
66.0,0.0,153.0,15.0,120.0,30.0,93.0,114.0,-0.08,0.93,0.3,2.0,0.0,-2.0,ga
66.0,0.0,153.0,15.0,114.0,30.0,97.0,114.0,-0.08,0.93,0.3,1.0,2.0,0.0,ga
66.0,0.0,153.0,14.0,120.0,31.0,97.0,114.0,-0.07,0.93,0.3,-2.0,3.0,0.0,ga
66.0,0.0,153.0,14.0,117.0,31.0,95.0,111.0,-0.08,0.93,0.3,-2.0,4.0,0.0,ga
64.0,0.0,151.0,14.0,132.0,31.0,95.0,109.0,-0.08,0.94,0.3,-3.0,5.0,-1.0,ga
68.0,0.0,151.0,14.0,132.0,31.0,95.0,109.0,-0.08,0.94,0.3,-4.0,5.0,0.0,ga
64.0,0.0,152.0,14.0,132.0,30.0,97.0,109.0,-0.08,0.93,0.31,-6.0,3.0,0.0,ga
64.0,0.0,152.0,14.0,132.0,30.0,97.0,111.0,-0.08,0.93,0.31,-4.0,3.0,0.0,ga
64.0,0.0,152.0,14.0,135.0,30.0,97.0,111.0,-0.09,0.93,0.31,-4.0,3.0,0.0,ga
64.0,0.0,154.0,14.0,117.0,30.0,100.0,111.0,-0.09,0.93,0.32,-4.0,2.0,0.0,ga
80.0,0.0,153.0,14.0,117.0,30.0,102.0,111.0,-0.08,0.93,0.32,-2.0,2.0,0.0,ga
78.0,0.0,153.0,14.0,120.0,30.0,100.0,111.0,-0.09,0.92,0.31,0.0,3.0,-1.0,ga
80.0,0.0,154.0,14.0,117.0,30.0,109.0,111.0,-0.09,0.93,0.31,0.0,3.0,-2.0,ga
78.0,0.0,154.0,15.0,126.0,28.0,109.0,114.0,-0.09,0.93,0.31,-2.0,2.0,-1.0,ga
78.0,0.0,153.0,13.0,114.0,28.0,114.0,117.0,-0.09,0.93,0.31,-2.0,3.0,-1.0,ga
76.0,0.0,156.0,14.0,117.0,28.0,114.0,117.0,-0.09,0.93,0.31,-1.0,3.0,-2.0,ga
76.0,0.0,155.0,14.0,117.0,28.0,114.0,119.0,-0.09,0.92,0.3,0.0,3.0,0.0,ga
78.0,0.0,154.0,14.0,114.0,28.0,112.0,117.0,-0.09,0.93,0.31,-1.0,2.0,0.0,ga
74.0,0.0,154.0,14.0,117.0,28.0,114.0,119.0,-0.09,0.93,0.3,1.0,2.0,0.0,ga
68.0,0.0,153.0,13.0,120.0,28.0,109.0,119.0,-0.09,0.93,0.3,1.0,2.0,-1.0,ga
64.0,0.0,154.0,13.0,120.0,31.0,107.0,119.0,-0.09,0.93,0.3,0.0,2.0,0.0,ga
64.0,0.0,155.0,13.0,117.0,33.0,107.0,117.0,-0.09,0.94,0.31,-1.0,2.0,0.0,ga
62.0,0.0,155.0,12.0,114.0,33.0,97.0,117.0,-0.09,0.93,0.31,0.0,2.0,0.0,ga
60.0,0.0,155.0,13.0,114.0,33.0,100.0,117.0,-0.1,0.93,0.31,0.0,2.0,0.0,ga
62.0,0.0,156.0,13.0,105.0,33.0,100.0,117.0,-0.09,0.93,0.31,-1.0,2.0,0.0,ga
62.0,0.0,153.0,14.0,108.0,31.0,100.0,117.0,-0.09,0.93,0.31,-1.0,1.0,0.0,ga
62.0,0.0,153.0,13.0,105.0,33.0,97.0,114.0,-0.1,0.93,0.31,-2.0,1.0,0.0,ga
60.0,0.0,153.0,13.0,108.0,30.0,97.0,114.0,-0.1,0.93,0.31,-1.0,2.0,-1.0,ga
60.0,0.0,152.0,13.0,105.0,30.0,93.0,114.0,-0.09,0.93,0.32,-3.0,1.0,0.0,ga
68.0,0.0,151.0,13.0,102.0,31.0,90.0,111.0,-0.09,0.93,0.32,-3.0,1.0,0.0,ga
72.0,0.0,151.0,13.0,93.0,28.0,85.0,114.0,-0.09,0.93,0.32,-2.0,2.0,0.0,ga
70.0,0.0,149.0,12.0,96.0,27.0,83.0,114.0,-0.1,0.93,0.31,-3.0,2.0,0.0,ga
72.0,0.0,149.0,12.0,96.0,27.0,83.0,114.0,-0.09,0.93,0.32,-3.0,2.0,1.0,ga
74.0,0.0,149.0,11.0,93.0,28.0,78.0,111.0,-0.09,0.92,0.32,-3.0,2.0,0.0,ga
74.0,0.0,149.0,11.0,96.0,28.0,76.0,109.0,-0.09,0.93,0.32,-2.0,2.0,0.0,ga
70.0,0.0,149.0,10.0,96.0,30.0,76.0,104.0,-0.09,0.93,0.32,-3.0,2.0,0.0,ga
74.0,0.0,148.0,10.0,96.0,30.0,76.0,104.0,-0.09,0.93,0.32,-3.0,2.0,0.0,ga
72.0,0.0,148.0,10.0,105.0,31.0,76.0,106.0,-0.09,0.93,0.32,-2.0,3.0,0.0,ga
74.0,0.0,149.0,10.0,108.0,31.0,78.0,104.0,-0.09,0.93,0.32,0.0,4.0,0.0,ga
68.0,0.0,151.0,11.0,105.0,30.0,81.0,104.0,-0.09,0.93,0.32,0.0,3.0,0.0,ga
66.0,0.0,152.0,11.0,120.0,28.0,85.0,104.0,-0.09,0.93,0.33,-1.0,2.0,0.0,ga
68.0,0.0,152.0,12.0,117.0,25.0,85.0,104.0,-0.08,0.92,0.33,2.0,3.0,0.0,ga
66.0,0.0,151.0,12.0,117.0,25.0,85.0,104.0,-0.09,0.93,0.32,2.0,2.0,0.0,ga
68.0,0.0,151.0,12.0,120.0,24.0,97.0,106.0,-0.09,0.93,0.32,2.0,2.0,0.0,ga
66.0,0.0,150.0,12.0,123.0,22.0,100.0,109.0,-0.08,0.93,0.32,2.0,1.0,0.0,ga
70.0,0.0,149.0,11.0,123.0,21.0,97.0,109.0,-0.08,0.93,0.31,4.0,2.0,0.0,ga
68.0,0.0,150.0,13.0,123.0,22.0,105.0,109.0,-0.09,0.93,0.31,3.0,1.0,0.0,ga
70.0,0.0,150.0,13.0,111.0,22.0,105.0,109.0,-0.08,0.93,0.3,2.0,1.0,0.0,ga
68.0,0.0,149.0,12.0,108.0,22.0,102.0,106.0,-0.08,0.93,0.3,1.0,1.0,0.0,ga
74.0,0.0,147.0,13.0,108.0,22.0,102.0,106.0,-0.08,0.93,0.3,0.0,2.0,-1.0,ga
76.0,0.0,146.0,13.0,102.0,24.0,102.0,106.0,-0.09,0.93,0.3,-2.0,2.0,-1.0,ga
76.0,0.0,146.0,13.0,102.0,28.0,102.0,106.0,-0.09,0.93,0.3,-4.0,2.0,0.0,ga
78.0,0.0,146.0,10.0,105.0,28.0,102.0,106.0,-0.08,0.93,0.3,-3.0,2.0,0.0,ga
80.0,0.0,147.0,11.0,105.0,30.0,93.0,104.0,-0.09,0.93,0.3,-4.0,2.0,-2.0,ga
78.0,0.0,147.0,11.0,99.0,30.0,90.0,101.0,-0.09,0.93,0.3,-5.0,3.0,-1.0,ga
80.0,0.0,147.0,11.0,96.0,31.0,93.0,104.0,-0.08,0.93,0.31,-6.0,3.0,0.0,ga
78.0,0.0,147.0,10.0,99.0,30.0,88.0,104.0,-0.09,0.92,0.31,-6.0,3.0,0.0,ga
80.0,0.0,147.0,10.0,96.0,30.0,85.0,104.0,-0.09,0.92,0.31,-5.0,4.0,-2.0,ga
66.0,0.0,168.0,46.0,372.0,146.0,88.0,348.0,-0.18,0.91,0.35,0.0,2.0,-3.0,ga
66.0,0.0,165.0,42.0,345.0,132.0,85.0,318.0,-0.18,0.91,0.34,1.0,2.0,-3.0,ga
66.0,0.0,163.0,38.0,309.0,119.0,85.0,290.0,-0.19,0.92,0.33,1.0,3.0,-4.0,ga
68.0,0.0,160.0,35.0,276.0,102.0,88.0,262.0,-0.2,0.92,0.34,2.0,3.0,-3.0,ga
66.0,0.0,158.0,31.0,246.0,87.0,90.0,234.0,-0.2,0.92,0.34,2.0,2.0,-2.0,ga
72.0,0.0,155.0,26.0,210.0,73.0,69.0,201.0,-0.2,0.92,0.33,3.0,3.0,-3.0,ga
66.0,0.0,155.0,21.0,174.0,58.0,71.0,175.0,-0.21,0.92,0.32,3.0,3.0,-3.0,ga
68.0,0.0,152.0,17.0,147.0,46.0,73.0,147.0,-0.22,0.92,0.32,4.0,1.0,-1.0,ga
66.0,0.0,150.0,12.0,117.0,31.0,73.0,119.0,-0.22,0.91,0.31,5.0,4.0,0.0,ga
70.0,0.0,149.0,11.0,108.0,31.0,73.0,117.0,-0.23,0.92,0.31,5.0,5.0,1.0,ga
70.0,0.0,149.0,11.0,108.0,31.0,73.0,117.0,-0.22,0.92,0.29,5.0,5.0,3.0,ga
68.0,0.0,149.0,11.0,111.0,30.0,76.0,114.0,-0.22,0.91,0.3,4.0,3.0,5.0,ga
72.0,0.0,149.0,11.0,111.0,30.0,73.0,111.0,-0.2,0.9,0.3,6.0,2.0,5.0,ga
64.0,0.0,149.0,10.0,114.0,28.0,78.0,109.0,-0.19,0.91,0.29,6.0,2.0,4.0,ga
58.0,0.0,149.0,10.0,111.0,28.0,76.0,109.0,-0.18,0.9,0.29,6.0,0.0,4.0,ga
54.0,0.0,149.0,10.0,114.0,27.0,83.0,111.0,-0.17,0.9,0.28,7.0,1.0,4.0,ga
62.0,0.0,146.0,10.0,114.0,25.0,85.0,114.0,-0.15,0.92,0.27,6.0,2.0,3.0,ga
60.0,0.0,146.0,10.0,108.0,27.0,81.0,111.0,-0.15,0.94,0.26,5.0,4.0,3.0,ga
60.0,0.0,146.0,11.0,111.0,27.0,78.0,111.0,-0.14,0.94,0.26,4.0,0.0,4.0,ga
60.0,0.0,146.0,11.0,111.0,27.0,76.0,111.0,-0.13,0.94,0.26,4.0,0.0,4.0,ga
58.0,0.0,150.0,11.0,117.0,25.0,78.0,114.0,-0.13,0.93,0.25,4.0,-2.0,3.0,ga
60.0,0.0,150.0,11.0,114.0,27.0,81.0,117.0,-0.13,0.94,0.25,4.0,-2.0,2.0,ga
58.0,0.0,150.0,12.0,114.0,25.0,78.0,117.0,-0.13,0.95,0.24,2.0,0.0,2.0,ga
64.0,0.0,150.0,12.0,111.0,27.0,76.0,114.0,-0.12,0.95,0.23,2.0,0.0,4.0,ga
70.0,0.0,150.0,12.0,105.0,28.0,71.0,114.0,-0.13,0.96,0.23,0.0,2.0,4.0,ga
74.0,0.0,150.0,12.0,108.0,28.0,71.0,111.0,-0.12,0.96,0.23,0.0,0.0,5.0,ga
70.0,0.0,150.0,12.0,105.0,30.0,71.0,109.0,-0.12,0.94,0.23,0.0,0.0,6.0,ga
86.0,0.0,150.0,13.0,108.0,28.0,71.0,111.0,-0.11,0.93,0.22,0.0,0.0,6.0,ga
88.0,0.0,149.0,12.0,105.0,30.0,69.0,111.0,-0.1,0.94,0.23,0.0,1.0,4.0,ga
86.0,0.0,149.0,12.0,102.0,30.0,66.0,109.0,-0.09,0.95,0.23,0.0,1.0,3.0,ga
86.0,0.0,146.0,13.0,102.0,30.0,66.0,109.0,-0.09,0.94,0.22,0.0,2.0,3.0,ga
82.0,0.0,146.0,12.0,99.0,31.0,66.0,106.0,-0.09,0.95,0.22,0.0,3.0,2.0,ga
82.0,0.0,146.0,11.0,99.0,31.0,69.0,104.0,-0.09,0.95,0.22,-1.0,3.0,1.0,ga
84.0,0.0,146.0,12.0,93.0,31.0,69.0,104.0,-0.09,0.96,0.22,-1.0,3.0,0.0,ga
84.0,0.0,146.0,12.0,96.0,31.0,71.0,104.0,-0.09,0.95,0.22,0.0,3.0,0.0,ga
84.0,0.0,146.0,13.0,90.0,33.0,71.0,106.0,-0.09,0.95,0.22,0.0,3.0,0.0,ga
84.0,0.0,146.0,12.0,96.0,33.0,69.0,109.0,-0.09,0.95,0.22,0.0,3.0,-1.0,ga
62.0,0.0,146.0,13.0,93.0,36.0,71.0,109.0,-0.09,0.95,0.22,-1.0,2.0,0.0,ga
62.0,0.0,146.0,13.0,93.0,36.0,78.0,106.0,-0.09,0.95,0.22,0.0,2.0,-1.0,ga
60.0,0.0,146.0,13.0,96.0,34.0,81.0,106.0,-0.1,0.95,0.22,0.0,2.0,-1.0,ga
62.0,0.0,146.0,13.0,99.0,34.0,78.0,109.0,-0.1,0.96,0.22,0.0,2.0,-1.0,ga
62.0,0.0,145.0,12.0,99.0,34.0,78.0,109.0,-0.09,0.95,0.22,0.0,1.0,0.0,ga
62.0,0.0,145.0,12.0,117.0,34.0,78.0,111.0,-0.09,0.95,0.22,0.0,2.0,0.0,ga
60.0,0.0,145.0,12.0,123.0,34.0,76.0,111.0,-0.1,0.95,0.21,-1.0,2.0,0.0,ga
58.0,0.0,147.0,12.0,123.0,33.0,76.0,111.0,-0.1,0.96,0.22,-2.0,2.0,0.0,ga
58.0,0.0,147.0,11.0,123.0,33.0,73.0,109.0,-0.1,0.95,0.22,-1.0,2.0,0.0,ga
54.0,0.0,146.0,11.0,120.0,33.0,73.0,111.0,-0.1,0.95,0.22,-1.0,2.0,0.0,ga
62.0,0.0,147.0,10.0,123.0,30.0,73.0,114.0,-0.09,0.95,0.21,0.0,2.0,0.0,ga
62.0,0.0,147.0,10.0,126.0,28.0,71.0,114.0,-0.09,0.95,0.21,0.0,2.0,0.0,ga
64.0,0.0,147.0,10.0,126.0,30.0,71.0,114.0,-0.09,0.95,0.22,0.0,2.0,0.0,ga
68.0,0.0,147.0,9.0,123.0,30.0,71.0,114.0,-0.08,0.96,0.22,0.0,2.0,-1.0,ga
72.0,0.0,147.0,10.0,123.0,28.0,71.0,117.0,-0.09,0.97,0.22,0.0,3.0,-2.0,ga
78.0,0.0,147.0,9.0,108.0,27.0,73.0,117.0,-0.09,0.97,0.22,0.0,2.0,-2.0,ga
80.0,0.0,146.0,8.0,111.0,27.0,73.0,117.0,-0.09,0.96,0.21,0.0,2.0,-2.0,ga
86.0,0.0,145.0,8.0,111.0,27.0,73.0,117.0,-0.09,0.96,0.21,0.0,2.0,-2.0,ga
90.0,0.0,145.0,8.0,105.0,25.0,78.0,117.0,-0.1,0.97,0.21,0.0,2.0,-2.0,ga
94.0,0.0,146.0,9.0,105.0,25.0,81.0,114.0,-0.1,0.97,0.21,0.0,3.0,-3.0,ga
100.0,0.0,146.0,9.0,105.0,25.0,81.0,114.0,-0.11,0.97,0.21,-1.0,3.0,-3.0,ga
102.0,0.0,147.0,9.0,105.0,25.0,81.0,114.0,-0.12,0.97,0.21,0.0,3.0,-2.0,ga
108.0,0.0,147.0,9.0,102.0,27.0,81.0,114.0,-0.12,0.96,0.2,0.0,2.0,-2.0,ga
110.0,0.0,145.0,10.0,96.0,25.0,83.0,111.0,-0.12,0.95,0.2,0.0,2.0,-1.0,ga
112.0,0.0,146.0,10.0,96.0,27.0,83.0,111.0,-0.11,0.95,0.2,-1.0,2.0,-1.0,ga
114.0,0.0,145.0,10.0,93.0,27.0,81.0,111.0,-0.11,0.95,0.2,0.0,2.0,0.0,ga
110.0,0.0,146.0,10.0,90.0,28.0,81.0,111.0,-0.1,0.95,0.2,0.0,2.0,0.0,ga
114.0,0.0,145.0,10.0,90.0,28.0,78.0,111.0,-0.1,0.95,0.2,0.0,2.0,0.0,ga
112.0,0.0,144.0,10.0,99.0,28.0,76.0,111.0,-0.1,0.95,0.2,0.0,2.0,0.0,ga
114.0,0.0,144.0,11.0,99.0,28.0,73.0,111.0,-0.1,0.95,0.2,0.0,2.0,0.0,ga
114.0,0.0,144.0,11.0,90.0,30.0,69.0,109.0,-0.09,0.94,0.2,0.0,2.0,0.0,ga
118.0,0.0,143.0,12.0,90.0,28.0,71.0,109.0,-0.09,0.94,0.2,0.0,2.0,0.0,ga
116.0,0.0,144.0,10.0,93.0,28.0,76.0,109.0,-0.09,0.95,0.2,0.0,2.0,0.0,ga
112.0,0.0,144.0,10.0,99.0,28.0,73.0,106.0,-0.09,0.95,0.19,0.0,2.0,0.0,ga
114.0,0.0,144.0,10.0,99.0,28.0,71.0,106.0,-0.09,0.95,0.19,0.0,2.0,0.0,ga
112.0,0.0,144.0,10.0,99.0,28.0,71.0,106.0,-0.1,0.96,0.19,0.0,2.0,-1.0,ga
118.0,0.0,144.0,10.0,99.0,28.0,71.0,106.0,-0.11,0.96,0.19,0.0,2.0,0.0,ga
118.0,0.0,145.0,12.0,102.0,28.0,45.0,109.0,-0.1,0.96,0.19,0.0,2.0,0.0,ga
120.0,0.0,146.0,11.0,99.0,28.0,42.0,106.0,-0.1,0.96,0.19,0.0,2.0,0.0,ga
122.0,0.0,145.0,11.0,96.0,28.0,47.0,106.0,-0.1,0.95,0.19,-1.0,2.0,0.0,ga
124.0,0.0,144.0,10.0,102.0,28.0,50.0,101.0,-0.1,0.95,0.19,0.0,2.0,0.0,ga
124.0,0.0,144.0,10.0,102.0,28.0,47.0,101.0,-0.1,0.95,0.19,0.0,2.0,0.0,ga
124.0,0.0,143.0,15.0,102.0,28.0,42.0,101.0,-0.1,0.95,0.19,0.0,2.0,0.0,ga
130.0,0.0,144.0,16.0,105.0,30.0,40.0,101.0,-0.11,0.95,0.19,-2.0,2.0,0.0,ga
130.0,0.0,143.0,16.0,105.0,30.0,40.0,99.0,-0.1,0.95,0.19,-1.0,2.0,0.0,ga
134.0,0.0,143.0,16.0,105.0,30.0,42.0,101.0,-0.11,0.95,0.19,-2.0,2.0,0.0,ga
138.0,0.0,143.0,14.0,111.0,28.0,45.0,99.0,-0.1,0.94,0.19,-2.0,2.0,0.0,ga
140.0,0.0,143.0,14.0,108.0,28.0,71.0,96.0,-0.1,0.93,0.19,-2.0,2.0,0.0,ga
146.0,0.0,143.0,15.0,102.0,30.0,69.0,96.0,-0.1,0.93,0.18,-2.0,2.0,0.0,ga
146.0,0.0,144.0,14.0,102.0,30.0,62.0,96.0,-0.11,0.95,0.19,-2.0,2.0,0.0,ga
146.0,0.0,148.0,13.0,102.0,30.0,62.0,99.0,-0.11,0.95,0.19,-2.0,2.0,0.0,ga
150.0,0.0,148.0,13.0,102.0,31.0,62.0,101.0,-0.11,0.95,0.19,-2.0,2.0,0.0,ga
150.0,0.0,148.0,10.0,102.0,31.0,62.0,99.0,-0.11,0.95,0.19,-2.0,2.0,0.0,ga
156.0,0.0,147.0,10.0,102.0,31.0,64.0,99.0,-0.11,0.94,0.19,-2.0,3.0,0.0,ga
154.0,0.0,147.0,10.0,105.0,30.0,64.0,96.0,-0.11,0.95,0.19,-2.0,2.0,-1.0,ga
156.0,0.0,147.0,11.0,105.0,28.0,62.0,96.0,-0.11,0.94,0.19,-2.0,3.0,0.0,ga
152.0,0.0,146.0,11.0,105.0,28.0,62.0,99.0,-0.11,0.95,0.19,-2.0,3.0,-1.0,ga
132.0,0.0,143.0,12.0,108.0,28.0,57.0,99.0,-0.11,0.95,0.19,-2.0,2.0,-1.0,ga
128.0,0.0,143.0,12.0,111.0,27.0,62.0,99.0,-0.11,0.95,0.19,-2.0,2.0,-1.0,ga
130.0,0.0,143.0,12.0,111.0,27.0,64.0,101.0,-0.11,0.95,0.19,-1.0,3.0,0.0,ga
128.0,0.0,139.0,13.0,108.0,28.0,64.0,99.0,-0.11,0.95,0.19,-1.0,3.0,0.0,ga
124.0,0.0,139.0,13.0,108.0,24.0,66.0,101.0,-0.11,0.96,0.19,0.0,3.0,0.0,ga
124.0,0.0,139.0,11.0,105.0,25.0,66.0,94.0,-0.11,0.96,0.19,-1.0,2.0,0.0,ga
124.0,0.0,139.0,12.0,102.0,25.0,69.0,96.0,-0.11,0.96,0.19,0.0,2.0,0.0,ga
124.0,0.0,139.0,11.0,105.0,25.0,71.0,101.0,-0.11,0.96,0.19,0.0,2.0,0.0,ga
124.0,0.0,139.0,10.0,102.0,27.0,71.0,99.0,-0.11,0.96,0.19,-1.0,2.0,0.0,ga
124.0,0.0,139.0,11.0,105.0,27.0,71.0,99.0,-0.11,0.96,0.19,0.0,2.0,0.0,ga
144.0,0.0,143.0,11.0,105.0,27.0,73.0,101.0,-0.11,0.96,0.19,0.0,2.0,0.0,ga
144.0,0.0,143.0,13.0,105.0,27.0,76.0,101.0,-0.11,0.96,0.19,0.0,2.0,0.0,ga
144.0,0.0,143.0,13.0,102.0,27.0,73.0,101.0,-0.11,0.96,0.19,-1.0,2.0,0.0,ga
148.0,0.0,143.0,14.0,105.0,27.0,73.0,101.0,-0.11,0.96,0.19,-2.0,1.0,-1.0,ga
146.0,0.0,143.0,14.0,108.0,27.0,73.0,104.0,-0.11,0.96,0.18,-2.0,1.0,-2.0,ga
146.0,0.0,143.0,15.0,111.0,28.0,71.0,111.0,-0.11,0.96,0.18,-3.0,2.0,-2.0,ga
142.0,0.0,143.0,14.0,111.0,28.0,71.0,111.0,-0.11,0.96,0.18,-4.0,1.0,-3.0,ga
142.0,0.0,143.0,13.0,108.0,28.0,71.0,109.0,-0.11,0.96,0.19,-5.0,2.0,-5.0,ga
144.0,0.0,144.0,16.0,105.0,28.0,66.0,111.0,-0.12,0.96,0.19,-7.0,2.0,-6.0,ga
144.0,0.0,144.0,15.0,105.0,28.0,69.0,111.0,-0.12,0.96,0.2,-9.0,2.0,-7.0,ga
144.0,0.0,144.0,16.0,105.0,30.0,66.0,114.0,-0.13,0.95,0.21,-10.0,1.0,-9.0,ga
142.0,0.0,144.0,14.0,102.0,30.0,64.0,111.0,-0.14,0.95,0.22,-10.0,2.0,-10.0,ga
142.0,0.0,144.0,15.0,102.0,30.0,66.0,106.0,-0.15,0.95,0.23,-10.0,2.0,-11.0,ga
140.0,0.0,144.0,15.0,102.0,28.0,66.0,106.0,-0.16,0.94,0.24,-9.0,2.0,-12.0,ga
142.0,0.0,144.0,15.0,96.0,30.0,71.0,104.0,-0.18,0.94,0.25,-9.0,2.0,-12.0,ga
142.0,0.0,144.0,15.0,105.0,30.0,69.0,101.0,-0.19,0.93,0.25,-8.0,2.0,-12.0,ga
144.0,0.0,144.0,16.0,105.0,28.0,71.0,101.0,-0.2,0.92,0.26,-6.0,3.0,-11.0,ga
144.0,0.0,143.0,16.0,105.0,28.0,66.0,104.0,-0.22,0.92,0.26,-5.0,3.0,-9.0,ga
142.0,0.0,143.0,15.0,102.0,28.0,71.0,104.0,-0.23,0.92,0.27,-2.0,4.0,-6.0,ga
144.0,0.0,143.0,16.0,102.0,28.0,71.0,101.0,-0.24,0.92,0.26,0.0,4.0,-2.0,ga
140.0,0.0,143.0,15.0,102.0,24.0,69.0,96.0,-0.24,0.92,0.25,4.0,4.0,3.0,ga
142.0,0.0,143.0,14.0,102.0,24.0,71.0,99.0,-0.23,0.92,0.24,4.0,3.0,5.0,ga
142.0,0.0,144.0,13.0,99.0,24.0,69.0,104.0,-0.22,0.92,0.24,5.0,2.0,8.0,ga
138.0,0.0,144.0,13.0,102.0,22.0,66.0,106.0,-0.21,0.93,0.24,5.0,3.0,9.0,ga
140.0,0.0,144.0,13.0,105.0,24.0,66.0,104.0,-0.2,0.93,0.23,5.0,3.0,11.0,ga
138.0,0.0,144.0,12.0,93.0,22.0,66.0,106.0,-0.18,0.94,0.23,5.0,3.0,12.0,ga
136.0,0.0,143.0,11.0,90.0,24.0,66.0,106.0,-0.17,0.94,0.22,5.0,2.0,12.0,ga
134.0,0.0,144.0,11.0,93.0,22.0,66.0,106.0,-0.15,0.95,0.21,5.0,2.0,12.0,ga
132.0,0.0,145.0,11.0,102.0,22.0,66.0,106.0,-0.14,0.95,0.2,5.0,1.0,10.0,ga
120.0,0.0,144.0,10.0,105.0,22.0,62.0,106.0,-0.12,0.95,0.19,4.0,1.0,8.0,ga
122.0,0.0,144.0,9.0,93.0,25.0,62.0,106.0,-0.11,0.95,0.19,3.0,1.0,6.0,ga
122.0,0.0,145.0,10.0,96.0,25.0,62.0,109.0,-0.11,0.96,0.18,4.0,2.0,6.0,ga
106.0,0.0,144.0,10.0,96.0,25.0,59.0,109.0,-0.1,0.96,0.18,5.0,2.0,5.0,ga
108.0,0.0,144.0,9.0,99.0,25.0,59.0,109.0,-0.1,0.96,0.17,4.0,2.0,5.0,ga
104.0,0.0,144.0,9.0,96.0,25.0,59.0,109.0,-0.1,0.97,0.16,4.0,2.0,4.0,ga
106.0,0.0,145.0,10.0,99.0,25.0,59.0,109.0,-0.09,0.97,0.16,2.0,1.0,2.0,ga
110.0,0.0,145.0,10.0,99.0,25.0,62.0,109.0,-0.09,0.96,0.16,1.0,1.0,1.0,ga
108.0,0.0,145.0,9.0,102.0,25.0,62.0,106.0,-0.09,0.97,0.16,0.0,1.0,0.0,ga
110.0,0.0,144.0,9.0,87.0,25.0,64.0,109.0,-0.09,0.96,0.16,-2.0,1.0,-2.0,ga
118.0,0.0,143.0,10.0,87.0,25.0,66.0,106.0,-0.1,0.96,0.16,-4.0,0.0,-4.0,ga
118.0,0.0,143.0,10.0,96.0,25.0,71.0,109.0,-0.1,0.97,0.16,-4.0,1.0,-5.0,ga
118.0,0.0,143.0,10.0,96.0,25.0,69.0,106.0,-0.11,0.96,0.17,-6.0,0.0,-6.0,ga
136.0,0.0,143.0,10.0,99.0,25.0,69.0,106.0,-0.11,0.96,0.17,-8.0,0.0,-7.0,ga
140.0,0.0,143.0,10.0,96.0,25.0,71.0,106.0,-0.12,0.96,0.18,-9.0,0.0,-7.0,ga
140.0,0.0,142.0,10.0,102.0,25.0,71.0,106.0,-0.12,0.96,0.18,-8.0,0.0,-7.0,ga
140.0,0.0,142.0,9.0,102.0,25.0,69.0,106.0,-0.13,0.95,0.19,-7.0,1.0,-6.0,ga
138.0,0.0,142.0,9.0,105.0,25.0,66.0,109.0,-0.14,0.95,0.19,-7.0,1.0,-5.0,ga
140.0,0.0,142.0,10.0,99.0,28.0,64.0,106.0,-0.14,0.95,0.2,-5.0,2.0,-4.0,ga
140.0,0.0,142.0,9.0,105.0,28.0,62.0,104.0,-0.14,0.95,0.2,-4.0,3.0,-3.0,ga
142.0,0.0,142.0,10.0,105.0,27.0,64.0,106.0,-0.15,0.95,0.2,-3.0,3.0,-2.0,ga
144.0,0.0,142.0,9.0,105.0,27.0,62.0,106.0,-0.14,0.95,0.2,-4.0,2.0,-2.0,ga
144.0,0.0,142.0,10.0,105.0,27.0,57.0,104.0,-0.14,0.94,0.2,-4.0,3.0,-2.0,ga
146.0,0.0,143.0,10.0,105.0,27.0,59.0,104.0,-0.14,0.94,0.21,-4.0,3.0,-2.0,ga
142.0,0.0,143.0,11.0,102.0,28.0,59.0,101.0,-0.15,0.94,0.21,-4.0,3.0,-3.0,ga
144.0,0.0,142.0,11.0,99.0,28.0,59.0,101.0,-0.15,0.94,0.21,-4.0,3.0,-4.0,ga
142.0,0.0,142.0,12.0,102.0,28.0,62.0,101.0,-0.15,0.94,0.21,-5.0,4.0,-5.0,ga
140.0,0.0,142.0,11.0,102.0,27.0,62.0,101.0,-0.16,0.94,0.21,-5.0,4.0,-5.0,ga
140.0,0.0,142.0,11.0,105.0,27.0,64.0,101.0,-0.16,0.94,0.21,-6.0,2.0,-6.0,ga
140.0,0.0,142.0,11.0,105.0,27.0,66.0,101.0,-0.17,0.93,0.22,-6.0,2.0,-6.0,ga
138.0,0.0,142.0,11.0,105.0,28.0,66.0,99.0,-0.17,0.93,0.22,-6.0,2.0,-7.0,ga
136.0,0.0,141.0,11.0,105.0,27.0,71.0,101.0,-0.18,0.93,0.23,-4.0,3.0,-6.0,ga
136.0,0.0,142.0,11.0,108.0,27.0,81.0,101.0,-0.19,0.93,0.23,-2.0,3.0,-4.0,ga
136.0,0.0,142.0,10.0,108.0,27.0,81.0,104.0,-0.19,0.93,0.23,1.0,4.0,0.0,ga
136.0,0.0,143.0,10.0,111.0,25.0,81.0,104.0,-0.19,0.93,0.23,2.0,4.0,2.0,ga
136.0,0.0,144.0,11.0,111.0,25.0,83.0,106.0,-0.19,0.93,0.22,3.0,3.0,5.0,ga
136.0,0.0,146.0,10.0,111.0,25.0,81.0,106.0,-0.18,0.93,0.22,5.0,3.0,6.0,ga
138.0,0.0,146.0,10.0,111.0,25.0,83.0,109.0,-0.17,0.93,0.22,6.0,3.0,7.0,ga
138.0,0.0,147.0,10.0,108.0,27.0,83.0,109.0,-0.16,0.94,0.21,7.0,3.0,8.0,ga
138.0,0.0,147.0,10.0,111.0,25.0,81.0,111.0,-0.16,0.94,0.2,7.0,3.0,8.0,ga
140.0,0.0,145.0,10.0,108.0,25.0,81.0,109.0,-0.15,0.94,0.19,7.0,3.0,8.0,ga
142.0,0.0,145.0,10.0,108.0,27.0,73.0,109.0,-0.14,0.95,0.18,6.0,2.0,7.0,ga
142.0,0.0,145.0,10.0,105.0,25.0,73.0,109.0,-0.13,0.95,0.18,4.0,2.0,6.0,ga
138.0,0.0,144.0,9.0,105.0,25.0,71.0,109.0,-0.13,0.95,0.17,3.0,1.0,3.0,ga
140.0,0.0,143.0,8.0,105.0,27.0,69.0,109.0,-0.12,0.95,0.17,2.0,1.0,2.0,ga
142.0,0.0,143.0,7.0,105.0,27.0,71.0,106.0,-0.12,0.96,0.17,2.0,2.0,1.0,ga
144.0,0.0,142.0,7.0,105.0,27.0,71.0,106.0,-0.11,0.96,0.16,1.0,2.0,1.0,ga
144.0,0.0,141.0,7.0,105.0,27.0,69.0,106.0,-0.11,0.96,0.16,0.0,2.0,1.0,ga
144.0,0.0,140.0,7.0,114.0,27.0,69.0,104.0,-0.11,0.96,0.16,0.0,2.0,0.0,ga
146.0,0.0,140.0,7.0,117.0,27.0,73.0,104.0,-0.11,0.96,0.16,0.0,2.0,0.0,ga
144.0,0.0,142.0,7.0,117.0,28.0,71.0,104.0,-0.11,0.96,0.16,0.0,2.0,0.0,ga
142.0,0.0,142.0,7.0,120.0,27.0,71.0,104.0,-0.11,0.96,0.16,0.0,2.0,0.0,ga
142.0,0.0,142.0,7.0,123.0,28.0,71.0,104.0,-0.11,0.96,0.16,1.0,2.0,0.0,ga
140.0,0.0,142.0,8.0,123.0,28.0,73.0,104.0,-0.11,0.96,0.16,0.0,2.0,0.0,ga
140.0,0.0,143.0,8.0,120.0,28.0,73.0,104.0,-0.11,0.96,0.15,0.0,2.0,0.0,ga
136.0,0.0,142.0,9.0,120.0,28.0,69.0,104.0,-0.11,0.96,0.15,0.0,2.0,0.0,ga
134.0,0.0,144.0,9.0,120.0,28.0,66.0,104.0,-0.11,0.96,0.15,0.0,2.0,0.0,ga
134.0,0.0,145.0,9.0,123.0,28.0,69.0,101.0,-0.11,0.96,0.15,0.0,2.0,0.0,ga
132.0,0.0,146.0,10.0,114.0,27.0,69.0,104.0,-0.11,0.96,0.15,0.0,1.0,0.0,ga
130.0,0.0,146.0,10.0,108.0,27.0,66.0,99.0,-0.11,0.96,0.15,-1.0,2.0,0.0,ga
126.0,0.0,146.0,10.0,102.0,27.0,66.0,99.0,-0.11,0.96,0.15,0.0,2.0,1.0,ga
126.0,0.0,147.0,11.0,108.0,25.0,64.0,101.0,-0.11,0.96,0.15,0.0,2.0,1.0,ga
124.0,0.0,147.0,11.0,105.0,25.0,62.0,104.0,-0.11,0.96,0.15,-3.0,1.0,0.0,ga
124.0,0.0,147.0,11.0,105.0,27.0,64.0,104.0,-0.1,0.96,0.15,-2.0,0.0,0.0,ga
122.0,0.0,147.0,11.0,108.0,25.0,64.0,101.0,-0.1,0.96,0.15,-4.0,0.0,0.0,ga
122.0,0.0,147.0,11.0,111.0,24.0,64.0,101.0,-0.1,0.96,0.15,-4.0,0.0,-1.0,ga
122.0,0.0,146.0,11.0,108.0,27.0,64.0,99.0,-0.1,0.96,0.16,-4.0,0.0,-1.0,ga
122.0,0.0,146.0,12.0,108.0,25.0,64.0,101.0,-0.1,0.96,0.16,-4.0,1.0,-2.0,ga
124.0,0.0,146.0,11.0,108.0,25.0,64.0,104.0,-0.1,0.96,0.16,-4.0,0.0,-2.0,ga
122.0,0.0,146.0,11.0,108.0,25.0,62.0,106.0,-0.1,0.96,0.16,-3.0,0.0,-2.0,ga
124.0,0.0,147.0,10.0,114.0,25.0,66.0,106.0,-0.11,0.96,0.17,-3.0,0.0,-3.0,ga
124.0,0.0,147.0,10.0,108.0,27.0,64.0,101.0,-0.11,0.95,0.17,-3.0,0.0,-3.0,ga
122.0,0.0,147.0,10.0,105.0,27.0,64.0,104.0,-0.11,0.96,0.17,-3.0,0.0,-4.0,ga
122.0,0.0,146.0,10.0,105.0,27.0,62.0,104.0,-0.12,0.96,0.17,-4.0,1.0,-5.0,ga
118.0,0.0,146.0,10.0,102.0,28.0,62.0,104.0,-0.12,0.96,0.18,-3.0,2.0,-4.0,ga
120.0,0.0,146.0,10.0,105.0,28.0,66.0,104.0,-0.13,0.96,0.18,-3.0,1.0,-4.0,ga
118.0,0.0,146.0,9.0,105.0,27.0,69.0,104.0,-0.13,0.96,0.18,-3.0,1.0,-4.0,ga
118.0,0.0,145.0,8.0,108.0,28.0,69.0,106.0,-0.14,0.96,0.19,-3.0,1.0,-4.0,ga
116.0,0.0,146.0,8.0,108.0,28.0,81.0,104.0,-0.14,0.95,0.19,0.0,-1.0,-3.0,ga
114.0,0.0,145.0,8.0,108.0,28.0,78.0,104.0,-0.14,0.96,0.19,2.0,-4.0,0.0,ga
114.0,0.0,144.0,8.0,105.0,28.0,83.0,104.0,-0.14,0.95,0.18,3.0,-6.0,2.0,ga
114.0,0.0,144.0,8.0,105.0,28.0,85.0,104.0,-0.14,0.96,0.18,4.0,-7.0,4.0,ga
116.0,0.0,144.0,8.0,108.0,28.0,88.0,104.0,-0.13,0.96,0.17,5.0,-6.0,6.0,ga
116.0,0.0,144.0,7.0,105.0,30.0,85.0,101.0,-0.12,0.96,0.17,7.0,-5.0,9.0,ga
118.0,0.0,145.0,7.0,102.0,28.0,85.0,101.0,-0.1,0.96,0.16,9.0,-5.0,10.0,ga
120.0,0.0,144.0,7.0,99.0,28.0,85.0,101.0,-0.09,0.96,0.15,9.0,-4.0,11.0,ga
118.0,0.0,144.0,7.0,102.0,27.0,83.0,101.0,-0.08,0.96,0.14,8.0,-4.0,10.0,ga
118.0,0.0,143.0,9.0,99.0,27.0,81.0,101.0,-0.06,0.96,0.14,6.0,-4.0,8.0,ga
118.0,0.0,143.0,9.0,99.0,27.0,69.0,101.0,-0.06,0.97,0.13,2.0,0.0,5.0,ga
118.0,0.0,143.0,8.0,96.0,27.0,73.0,104.0,-0.05,0.97,0.12,-2.0,3.0,1.0,ga
118.0,0.0,143.0,8.0,99.0,27.0,66.0,104.0,-0.04,0.97,0.13,-6.0,7.0,-3.0,ga
118.0,0.0,143.0,8.0,99.0,27.0,62.0,104.0,-0.04,0.97,0.14,-10.0,9.0,-8.0,ga
120.0,0.0,143.0,8.0,99.0,24.0,64.0,111.0,-0.06,0.96,0.15,-12.0,9.0,-11.0,ga
116.0,0.0,144.0,9.0,105.0,24.0,64.0,114.0,-0.07,0.96,0.16,-15.0,10.0,-15.0,ga
118.0,0.0,144.0,10.0,108.0,24.0,69.0,119.0,-0.1,0.95,0.17,-16.0,11.0,-18.0,ga
116.0,0.0,145.0,8.0,108.0,25.0,69.0,119.0,-0.12,0.95,0.18,-17.0,9.0,-20.0,ga
118.0,0.0,146.0,9.0,105.0,25.0,69.0,122.0,-0.14,0.94,0.19,-18.0,9.0,-20.0,ga
118.0,0.0,146.0,7.0,108.0,25.0,69.0,119.0,-0.16,0.94,0.2,-18.0,10.0,-19.0,ga
118.0,0.0,145.0,6.0,108.0,25.0,66.0,119.0,-0.18,0.93,0.22,-17.0,10.0,-17.0,ga
120.0,0.0,148.0,6.0,114.0,25.0,64.0,119.0,-0.2,0.92,0.23,-17.0,12.0,-16.0,ga
118.0,0.0,148.0,7.0,117.0,25.0,66.0,122.0,-0.22,0.92,0.25,-15.0,11.0,-15.0,ga
118.0,0.0,149.0,7.0,120.0,24.0,66.0,122.0,-0.24,0.91,0.25,-13.0,11.0,-13.0,ga
116.0,0.0,148.0,7.0,117.0,25.0,62.0,111.0,-0.25,0.91,0.26,-12.0,10.0,-11.0,ga
116.0,0.0,148.0,6.0,114.0,25.0,59.0,111.0,-0.26,0.9,0.27,-10.0,8.0,-8.0,ga
116.0,0.0,148.0,6.0,111.0,25.0,54.0,106.0,-0.27,0.9,0.28,-8.0,6.0,-5.0,ga
116.0,0.0,148.0,6.0,111.0,24.0,35.0,106.0,-0.27,0.9,0.28,-6.0,5.0,0.0,ga
114.0,0.0,147.0,6.0,111.0,24.0,35.0,106.0,-0.27,0.9,0.29,-2.0,7.0,5.0,ga
114.0,0.0,147.0,6.0,87.0,24.0,35.0,104.0,-0.27,0.9,0.29,2.0,7.0,9.0,ga
114.0,0.0,148.0,6.0,93.0,22.0,38.0,106.0,-0.25,0.9,0.28,4.0,6.0,12.0,ga
114.0,0.0,145.0,7.0,87.0,24.0,33.0,106.0,-0.24,0.91,0.27,5.0,5.0,14.0,ga
114.0,0.0,146.0,5.0,81.0,24.0,31.0,104.0,-0.22,0.91,0.26,5.0,3.0,15.0,ga
112.0,0.0,146.0,7.0,78.0,24.0,35.0,106.0,-0.2,0.92,0.26,6.0,2.0,16.0,ga
114.0,0.0,145.0,7.0,78.0,24.0,38.0,106.0,-0.19,0.92,0.25,7.0,1.0,16.0,ga
112.0,0.0,145.0,7.0,78.0,24.0,40.0,106.0,-0.18,0.93,0.25,9.0,1.0,17.0,ga
112.0,0.0,144.0,7.0,81.0,25.0,38.0,106.0,-0.16,0.93,0.24,10.0,2.0,17.0,ga
112.0,0.0,143.0,7.0,78.0,25.0,59.0,106.0,-0.14,0.94,0.23,11.0,3.0,15.0,ga
110.0,0.0,144.0,7.0,81.0,25.0,52.0,106.0,-0.13,0.94,0.21,10.0,1.0,13.0,ga
110.0,0.0,144.0,7.0,93.0,25.0,50.0,106.0,-0.11,0.94,0.2,8.0,1.0,11.0,ga
112.0,0.0,144.0,7.0,90.0,25.0,52.0,106.0,-0.1,0.95,0.19,8.0,1.0,10.0,ga
112.0,0.0,143.0,7.0,93.0,27.0,54.0,106.0,-0.09,0.96,0.18,7.0,1.0,9.0,ga
112.0,0.0,143.0,7.0,96.0,25.0,57.0,106.0,-0.09,0.96,0.18,5.0,0.0,7.0,ga
112.0,0.0,143.0,5.0,96.0,25.0,57.0,106.0,-0.08,0.97,0.17,2.0,-1.0,5.0,ga
112.0,0.0,144.0,5.0,102.0,25.0,62.0,106.0,-0.07,0.96,0.16,-3.0,-1.0,4.0,ga
110.0,0.0,143.0,6.0,102.0,25.0,62.0,109.0,-0.06,0.97,0.17,-8.0,0.0,2.0,ga
108.0,0.0,144.0,7.0,102.0,25.0,64.0,109.0,-0.07,0.96,0.18,-16.0,-1.0,1.0,ga
110.0,0.0,144.0,6.0,102.0,25.0,64.0,109.0,-0.07,0.96,0.19,-22.0,-1.0,0.0,ga
110.0,0.0,144.0,5.0,102.0,24.0,66.0,106.0,-0.07,0.96,0.21,-26.0,-2.0,-2.0,ga
108.0,0.0,144.0,5.0,108.0,24.0,71.0,106.0,-0.07,0.95,0.24,-30.0,-3.0,-3.0,ga
106.0,0.0,143.0,6.0,105.0,24.0,71.0,104.0,-0.07,0.93,0.27,-33.0,-3.0,-3.0,ga
106.0,0.0,144.0,5.0,108.0,24.0,71.0,106.0,-0.08,0.92,0.31,-32.0,-3.0,-3.0,ga
108.0,0.0,144.0,5.0,105.0,24.0,71.0,106.0,-0.08,0.91,0.33,-27.0,-2.0,-1.0,ga
106.0,0.0,144.0,5.0,105.0,24.0,69.0,104.0,-0.08,0.9,0.36,-22.0,0.0,0.0,ga
108.0,0.0,146.0,6.0,102.0,24.0,69.0,104.0,-0.08,0.9,0.38,-12.0,1.0,1.0,ga
110.0,0.0,146.0,8.0,102.0,24.0,66.0,104.0,-0.08,0.89,0.38,-4.0,1.0,1.0,ga
110.0,0.0,146.0,7.0,102.0,24.0,64.0,104.0,-0.07,0.9,0.38,6.0,2.0,2.0,ga
112.0,0.0,146.0,7.0,102.0,25.0,64.0,104.0,-0.07,0.9,0.37,13.0,2.0,1.0,ga
110.0,0.0,146.0,7.0,102.0,27.0,66.0,104.0,-0.07,0.91,0.35,17.0,3.0,1.0,ga
112.0,0.0,146.0,7.0,99.0,27.0,62.0,106.0,-0.06,0.91,0.33,22.0,3.0,0.0,ga
110.0,0.0,146.0,7.0,102.0,27.0,59.0,106.0,-0.07,0.92,0.31,25.0,3.0,-1.0,ga
106.0,0.0,145.0,7.0,99.0,27.0,59.0,106.0,-0.07,0.93,0.28,29.0,3.0,-2.0,ga
104.0,0.0,145.0,7.0,96.0,27.0,59.0,104.0,-0.07,0.94,0.25,27.0,3.0,-2.0,ga
104.0,0.0,145.0,8.0,102.0,25.0,59.0,104.0,-0.07,0.95,0.22,26.0,3.0,-2.0,ga
102.0,0.0,144.0,8.0,99.0,27.0,59.0,104.0,-0.08,0.95,0.19,21.0,2.0,-2.0,ga
102.0,0.0,144.0,5.0,102.0,27.0,59.0,106.0,-0.08,0.96,0.18,17.0,2.0,-2.0,ga
104.0,0.0,143.0,5.0,96.0,27.0,64.0,104.0,-0.08,0.96,0.16,13.0,1.0,-2.0,ga
102.0,0.0,143.0,6.0,96.0,27.0,64.0,104.0,-0.08,0.96,0.15,11.0,1.0,-2.0,ga
104.0,0.0,143.0,7.0,96.0,27.0,64.0,106.0,-0.08,0.96,0.14,10.0,1.0,-2.0,ga
104.0,0.0,143.0,7.0,99.0,27.0,69.0,104.0,-0.09,0.97,0.13,7.0,0.0,-2.0,ga
104.0,0.0,144.0,7.0,102.0,27.0,69.0,106.0,-0.09,0.97,0.12,2.0,0.0,-3.0,ga
106.0,0.0,143.0,8.0,102.0,27.0,69.0,106.0,-0.09,0.97,0.12,-5.0,1.0,-5.0,ga
104.0,0.0,143.0,8.0,102.0,25.0,66.0,106.0,-0.1,0.97,0.13,-8.0,4.0,-6.0,ga
108.0,0.0,143.0,8.0,102.0,27.0,69.0,106.0,-0.1,0.97,0.14,-12.0,3.0,-7.0,ga
108.0,0.0,143.0,8.0,102.0,27.0,66.0,106.0,-0.11,0.97,0.15,-15.0,4.0,-8.0,ga
108.0,0.0,143.0,8.0,99.0,27.0,66.0,106.0,-0.12,0.96,0.17,-21.0,2.0,-8.0,ga
106.0,0.0,142.0,7.0,102.0,25.0,62.0,106.0,-0.13,0.96,0.18,-27.0,1.0,-8.0,ga
106.0,0.0,142.0,7.0,102.0,24.0,62.0,106.0,-0.13,0.95,0.21,-34.0,0.0,-7.0,ga
108.0,0.0,142.0,7.0,111.0,25.0,59.0,106.0,-0.14,0.93,0.25,-35.0,-2.0,-5.0,ga
104.0,0.0,142.0,7.0,108.0,24.0,57.0,106.0,-0.14,0.92,0.28,-31.0,-3.0,-3.0,ga
110.0,0.0,141.0,7.0,108.0,24.0,57.0,106.0,-0.14,0.91,0.3,-24.0,-6.0,2.0,ga
110.0,0.0,141.0,6.0,108.0,25.0,57.0,104.0,-0.14,0.91,0.32,-15.0,-9.0,6.0,ga
112.0,0.0,141.0,6.0,108.0,24.0,62.0,104.0,-0.12,0.91,0.32,-9.0,-14.0,10.0,ga
112.0,0.0,140.0,5.0,105.0,24.0,62.0,104.0,-0.1,0.91,0.33,-3.0,-15.0,14.0,ga
112.0,0.0,141.0,5.0,108.0,22.0,64.0,106.0,-0.07,0.9,0.33,4.0,-15.0,16.0,ga
112.0,0.0,141.0,6.0,108.0,24.0,66.0,106.0,-0.05,0.91,0.32,13.0,-10.0,17.0,ga
110.0,0.0,142.0,7.0,108.0,27.0,66.0,104.0,-0.03,0.91,0.31,22.0,-6.0,16.0,ga
112.0,0.0,142.0,7.0,108.0,27.0,69.0,104.0,-0.01,0.92,0.29,28.0,0.0,13.0,ga
110.0,0.0,142.0,7.0,102.0,27.0,66.0,104.0,0.01,0.94,0.26,30.0,9.0,10.0,ga
112.0,0.0,142.0,7.0,102.0,27.0,66.0,104.0,0.02,0.95,0.23,27.0,15.0,5.0,ga
112.0,0.0,143.0,7.0,99.0,27.0,69.0,109.0,0.01,0.96,0.21,21.0,19.0,0.0,ga
100.0,0.0,143.0,7.0,99.0,27.0,64.0,109.0,0.01,0.96,0.19,16.0,23.0,-5.0,ga
108.0,0.0,143.0,7.0,99.0,27.0,62.0,106.0,-0.0,0.96,0.17,10.0,32.0,-9.0,ga
108.0,0.0,143.0,7.0,99.0,27.0,59.0,106.0,-0.03,0.96,0.17,6.0,36.0,-12.0,ga
108.0,0.0,143.0,7.0,96.0,28.0,59.0,106.0,-0.05,0.96,0.16,2.0,39.0,-15.0,ga
108.0,0.0,142.0,7.0,93.0,28.0,59.0,104.0,-0.08,0.96,0.16,-2.0,40.0,-17.0,ga
110.0,0.0,142.0,7.0,90.0,27.0,59.0,106.0,-0.1,0.96,0.16,-9.0,39.0,-18.0,ga
112.0,0.0,142.0,6.0,90.0,27.0,59.0,106.0,-0.13,0.96,0.16,-14.0,34.0,-18.0,ga
114.0,0.0,142.0,6.0,87.0,27.0,62.0,106.0,-0.14,0.95,0.17,-18.0,25.0,-17.0,ga
108.0,0.0,142.0,6.0,90.0,27.0,59.0,106.0,-0.16,0.94,0.19,-23.0,19.0,-15.0,ga
106.0,0.0,142.0,5.0,93.0,27.0,59.0,99.0,-0.17,0.94,0.2,-24.0,13.0,-13.0,ga
116.0,0.0,142.0,6.0,93.0,27.0,83.0,104.0,-0.18,0.93,0.23,-27.0,11.0,-11.0,ga
110.0,0.0,143.0,7.0,90.0,27.0,83.0,104.0,-0.19,0.93,0.25,-28.0,3.0,-10.0,ga
108.0,0.0,143.0,6.0,93.0,27.0,85.0,104.0,-0.19,0.92,0.27,-29.0,-2.0,-8.0,ga
110.0,0.0,144.0,6.0,93.0,27.0,85.0,104.0,-0.2,0.91,0.31,-29.0,-6.0,-7.0,ga
106.0,0.0,144.0,5.0,96.0,27.0,81.0,106.0,-0.2,0.9,0.33,-26.0,-10.0,-5.0,ga
108.0,0.0,144.0,5.0,96.0,25.0,83.0,106.0,-0.2,0.89,0.36,-21.0,-14.0,-2.0,ga
106.0,0.0,144.0,5.0,99.0,25.0,78.0,106.0,-0.19,0.88,0.38,-13.0,-19.0,2.0,ga
104.0,0.0,144.0,5.0,99.0,25.0,78.0,109.0,-0.18,0.88,0.39,-4.0,-22.0,6.0,ga
110.0,0.0,144.0,5.0,96.0,25.0,78.0,106.0,-0.15,0.88,0.39,6.0,-24.0,9.0,ga
114.0,0.0,144.0,4.0,96.0,25.0,81.0,111.0,-0.13,0.88,0.39,14.0,-21.0,12.0,ga
116.0,0.0,143.0,4.0,96.0,27.0,62.0,111.0,-0.11,0.89,0.38,20.0,-20.0,13.0,ga
114.0,0.0,143.0,4.0,102.0,27.0,57.0,109.0,-0.08,0.9,0.36,26.0,-17.0,14.0,ga
116.0,0.0,143.0,4.0,105.0,27.0,57.0,111.0,-0.06,0.91,0.33,30.0,-14.0,14.0,ga
116.0,0.0,143.0,4.0,105.0,27.0,57.0,104.0,-0.04,0.93,0.3,33.0,-11.0,13.0,ga
118.0,0.0,143.0,4.0,108.0,27.0,57.0,104.0,-0.02,0.94,0.27,33.0,-9.0,11.0,ga
118.0,0.0,143.0,4.0,108.0,28.0,54.0,104.0,-0.0,0.95,0.24,30.0,-2.0,8.0,ga
116.0,0.0,146.0,5.0,108.0,28.0,57.0,104.0,0.01,0.96,0.22,26.0,4.0,5.0,ga
120.0,0.0,146.0,6.0,108.0,27.0,59.0,104.0,0.01,0.97,0.19,20.0,11.0,1.0,ga
118.0,0.0,145.0,6.0,105.0,28.0,62.0,104.0,-0.0,0.97,0.17,15.0,17.0,-2.0,ga
118.0,0.0,145.0,7.0,102.0,25.0,64.0,101.0,-0.01,0.97,0.16,10.0,18.0,-6.0,ga
116.0,0.0,146.0,8.0,102.0,25.0,64.0,104.0,-0.02,0.97,0.15,7.0,19.0,-8.0,ga
118.0,0.0,145.0,9.0,99.0,25.0,69.0,104.0,-0.03,0.97,0.14,2.0,18.0,-11.0,ga
118.0,0.0,145.0,10.0,93.0,22.0,69.0,104.0,-0.05,0.97,0.14,-2.0,18.0,-13.0,ga
118.0,0.0,146.0,11.0,90.0,22.0,66.0,109.0,-0.07,0.97,0.14,-7.0,18.0,-15.0,ga
118.0,0.0,146.0,13.0,90.0,21.0,71.0,109.0,-0.09,0.96,0.15,-9.0,18.0,-16.0,ga
116.0,0.0,145.0,13.0,93.0,19.0,71.0,109.0,-0.1,0.96,0.15,-10.0,15.0,-17.0,ga
116.0,0.0,143.0,14.0,93.0,19.0,73.0,111.0,-0.12,0.95,0.16,-11.0,14.0,-16.0,ga
116.0,0.0,145.0,14.0,93.0,21.0,73.0,109.0,-0.14,0.95,0.17,-9.0,10.0,-13.0,ga
118.0,0.0,145.0,15.0,99.0,19.0,71.0,109.0,-0.15,0.95,0.17,-10.0,6.0,-12.0,ga
116.0,0.0,145.0,15.0,99.0,22.0,71.0,109.0,-0.16,0.95,0.18,-10.0,5.0,-10.0,ga
114.0,0.0,144.0,15.0,102.0,22.0,69.0,106.0,-0.16,0.94,0.18,-12.0,1.0,-8.0,ga
116.0,0.0,144.0,14.0,102.0,22.0,69.0,104.0,-0.17,0.94,0.19,-11.0,0.0,-6.0,ga
116.0,0.0,142.0,14.0,105.0,24.0,66.0,94.0,-0.17,0.94,0.2,-13.0,-2.0,-4.0,ga
116.0,0.0,141.0,13.0,111.0,24.0,66.0,94.0,-0.17,0.94,0.21,-11.0,-5.0,-1.0,ga
114.0,0.0,141.0,13.0,105.0,25.0,66.0,94.0,-0.16,0.93,0.22,-14.0,-3.0,-1.0,ga
114.0,0.0,141.0,12.0,102.0,25.0,64.0,94.0,-0.17,0.93,0.23,-12.0,-5.0,-1.0,ga
116.0,0.0,142.0,12.0,105.0,25.0,69.0,94.0,-0.16,0.93,0.24,-15.0,-6.0,-4.0,ga
114.0,0.0,140.0,11.0,105.0,24.0,66.0,94.0,-0.16,0.93,0.26,-18.0,-5.0,-7.0,ga
114.0,0.0,140.0,10.0,105.0,22.0,64.0,94.0,-0.16,0.92,0.28,-20.0,-3.0,-9.0,ga
114.0,0.0,139.0,10.0,102.0,22.0,64.0,94.0,-0.17,0.91,0.3,-19.0,-2.0,-11.0,ga
120.0,0.0,140.0,10.0,105.0,21.0,66.0,94.0,-0.18,0.9,0.31,-16.0,0.0,-11.0,ga
114.0,0.0,140.0,11.0,96.0,21.0,64.0,96.0,-0.2,0.9,0.33,-11.0,0.0,-9.0,ga
114.0,0.0,142.0,10.0,99.0,19.0,42.0,106.0,-0.2,0.89,0.33,-3.0,0.0,-5.0,ga
114.0,0.0,142.0,10.0,96.0,21.0,47.0,106.0,-0.2,0.9,0.33,1.0,1.0,0.0,ga
108.0,0.0,142.0,10.0,99.0,21.0,45.0,106.0,-0.21,0.9,0.33,7.0,-2.0,5.0,ga
110.0,0.0,142.0,10.0,99.0,21.0,45.0,106.0,-0.19,0.9,0.31,9.0,0.0,10.0,ga
110.0,0.0,142.0,10.0,99.0,21.0,42.0,109.0,-0.18,0.91,0.31,15.0,0.0,17.0,ga
108.0,0.0,142.0,8.0,99.0,21.0,42.0,106.0,-0.16,0.92,0.29,19.0,3.0,23.0,ga
110.0,0.0,142.0,10.0,99.0,22.0,42.0,106.0,-0.14,0.93,0.27,22.0,2.0,27.0,ga
108.0,0.0,143.0,10.0,102.0,22.0,45.0,106.0,-0.1,0.93,0.24,22.0,3.0,30.0,ga
104.0,0.0,143.0,9.0,99.0,24.0,42.0,109.0,-0.07,0.95,0.21,20.0,3.0,29.0,ga
110.0,0.0,142.0,9.0,102.0,25.0,42.0,109.0,-0.04,0.95,0.19,14.0,3.0,24.0,ga
110.0,0.0,142.0,9.0,99.0,24.0,66.0,109.0,-0.01,0.96,0.19,9.0,2.0,15.0,ga
112.0,0.0,142.0,9.0,99.0,24.0,64.0,109.0,0.0,0.96,0.18,3.0,1.0,4.0,ga
118.0,0.0,143.0,9.0,99.0,24.0,64.0,111.0,0.01,0.97,0.17,-4.0,0.0,-3.0,ga
118.0,0.0,142.0,9.0,96.0,24.0,66.0,109.0,-0.0,0.96,0.18,-16.0,0.0,-7.0,ga
116.0,0.0,142.0,8.0,99.0,22.0,64.0,106.0,-0.01,0.96,0.19,-23.0,0.0,-9.0,ga
116.0,0.0,143.0,10.0,96.0,25.0,66.0,109.0,-0.03,0.95,0.22,-32.0,-2.0,-12.0,ga
114.0,0.0,143.0,9.0,93.0,25.0,66.0,106.0,-0.04,0.94,0.25,-39.0,-3.0,-15.0,ga
116.0,0.0,143.0,9.0,93.0,24.0,57.0,106.0,-0.05,0.92,0.29,-44.0,-5.0,-15.0,ga
114.0,0.0,144.0,9.0,93.0,25.0,54.0,106.0,-0.07,0.91,0.33,-49.0,-5.0,-15.0,ga
112.0,0.0,144.0,9.0,93.0,24.0,54.0,106.0,-0.08,0.89,0.37,-52.0,-3.0,-11.0,ga
112.0,0.0,144.0,7.0,90.0,24.0,57.0,106.0,-0.09,0.87,0.41,-55.0,-2.0,-6.0,ga
110.0,0.0,145.0,7.0,93.0,24.0,54.0,104.0,-0.09,0.84,0.47,-48.0,-2.0,1.0,ga
110.0,0.0,145.0,6.0,93.0,22.0,57.0,104.0,-0.08,0.81,0.51,-37.0,-1.0,5.0,ga
108.0,0.0,145.0,5.0,96.0,22.0,54.0,101.0,-0.07,0.81,0.53,-19.0,0.0,7.0,ga
106.0,0.0,145.0,5.0,96.0,24.0,57.0,101.0,-0.06,0.81,0.54,-4.0,0.0,5.0,ga
110.0,0.0,144.0,5.0,93.0,24.0,52.0,99.0,-0.05,0.81,0.54,10.0,0.0,4.0,ga
108.0,0.0,144.0,4.0,99.0,24.0,52.0,101.0,-0.05,0.81,0.52,24.0,0.0,3.0,ga
110.0,0.0,144.0,4.0,99.0,24.0,64.0,99.0,-0.05,0.82,0.49,34.0,-2.0,1.0,ga
108.0,0.0,144.0,4.0,96.0,24.0,64.0,99.0,-0.05,0.85,0.46,46.0,-2.0,0.0,ga
110.0,0.0,144.0,5.0,99.0,22.0,69.0,99.0,-0.05,0.86,0.41,54.0,-4.0,-1.0,ga
108.0,0.0,143.0,7.0,99.0,22.0,64.0,101.0,-0.05,0.89,0.36,60.0,-4.0,-1.0,ga
110.0,0.0,143.0,8.0,96.0,24.0,69.0,101.0,-0.05,0.91,0.3,61.0,-5.0,-2.0,ga
110.0,0.0,143.0,10.0,96.0,25.0,66.0,101.0,-0.05,0.94,0.25,56.0,-4.0,-3.0,ga
110.0,0.0,142.0,11.0,90.0,25.0,71.0,106.0,-0.05,0.95,0.2,50.0,-6.0,-4.0,ga
112.0,0.0,143.0,12.0,90.0,24.0,69.0,106.0,-0.05,0.96,0.16,42.0,-7.0,-4.0,ga
108.0,0.0,142.0,12.0,90.0,25.0,73.0,106.0,-0.05,0.96,0.12,37.0,-8.0,-4.0,ga
106.0,0.0,142.0,13.0,90.0,24.0,71.0,109.0,-0.05,0.97,0.09,32.0,-6.0,-4.0,ga
106.0,0.0,141.0,14.0,90.0,24.0,69.0,109.0,-0.05,0.98,0.06,28.0,-5.0,-4.0,ga
106.0,0.0,141.0,14.0,96.0,22.0,66.0,109.0,-0.05,0.98,0.03,22.0,-5.0,-4.0,ga
106.0,0.0,141.0,14.0,93.0,21.0,62.0,109.0,-0.05,0.98,0.01,17.0,-4.0,-2.0,ga
102.0,0.0,142.0,14.0,96.0,21.0,62.0,106.0,-0.05,0.97,-0.0,16.0,-3.0,-2.0,ga
104.0,0.0,141.0,14.0,99.0,19.0,59.0,106.0,-0.06,0.97,-0.02,14.0,-3.0,-2.0,ga
104.0,0.0,141.0,14.0,99.0,18.0,59.0,106.0,-0.06,0.97,-0.03,15.0,-3.0,-2.0,ga
104.0,0.0,141.0,13.0,108.0,18.0,57.0,106.0,-0.06,0.97,-0.05,16.0,-3.0,-2.0,ga
104.0,0.0,141.0,13.0,105.0,18.0,57.0,106.0,-0.06,0.97,-0.07,14.0,-3.0,-2.0,ga
106.0,0.0,141.0,14.0,108.0,16.0,54.0,106.0,-0.06,0.96,-0.08,15.0,-2.0,-2.0,ga
108.0,0.0,142.0,14.0,105.0,16.0,59.0,101.0,-0.07,0.96,-0.09,14.0,-2.0,-2.0,ga
106.0,0.0,142.0,13.0,102.0,16.0,62.0,101.0,-0.07,0.97,-0.11,12.0,-2.0,-2.0,ga
104.0,0.0,142.0,13.0,105.0,15.0,64.0,101.0,-0.07,0.95,-0.12,13.0,-2.0,0.0,ga
106.0,0.0,141.0,13.0,108.0,18.0,64.0,101.0,-0.07,0.96,-0.13,12.0,-2.0,-2.0,ga
108.0,0.0,140.0,14.0,105.0,18.0,62.0,104.0,-0.07,0.96,-0.14,7.0,0.0,-2.0,ga
110.0,0.0,140.0,14.0,102.0,19.0,62.0,104.0,-0.08,0.97,-0.15,1.0,1.0,-1.0,ga
110.0,0.0,140.0,14.0,105.0,19.0,62.0,104.0,-0.08,0.96,-0.16,-8.0,2.0,0.0,ga
112.0,0.0,140.0,14.0,102.0,19.0,62.0,106.0,-0.08,0.97,-0.14,-15.0,4.0,1.0,ga
110.0,0.0,139.0,13.0,102.0,19.0,62.0,104.0,-0.07,0.97,-0.13,-24.0,7.0,0.0,ga
110.0,0.0,139.0,13.0,105.0,19.0,64.0,104.0,-0.07,0.98,-0.1,-28.0,8.0,2.0,ga
112.0,0.0,139.0,13.0,105.0,21.0,64.0,109.0,-0.07,0.97,-0.07,-33.0,9.0,3.0,ga
112.0,0.0,139.0,13.0,108.0,21.0,62.0,109.0,-0.06,0.97,-0.04,-35.0,10.0,4.0,ga
118.0,0.0,139.0,13.0,105.0,24.0,64.0,109.0,-0.06,0.98,-0.01,-41.0,11.0,4.0,ga
114.0,0.0,140.0,13.0,105.0,22.0,64.0,109.0,-0.06,0.98,0.02,-48.0,12.0,4.0,ga
114.0,0.0,141.0,11.0,105.0,24.0,71.0,111.0,-0.05,0.98,0.06,-51.0,11.0,5.0,ga
110.0,0.0,142.0,11.0,102.0,24.0,69.0,109.0,-0.04,0.96,0.11,-48.0,10.0,6.0,ga
106.0,0.0,142.0,11.0,102.0,22.0,66.0,109.0,-0.04,0.96,0.16,-42.0,10.0,5.0,ga
106.0,0.0,142.0,11.0,102.0,24.0,64.0,101.0,-0.02,0.96,0.18,-37.0,11.0,4.0,ga
100.0,0.0,142.0,12.0,102.0,24.0,64.0,101.0,-0.03,0.95,0.22,-31.0,11.0,4.0,ga
100.0,0.0,142.0,13.0,99.0,24.0,59.0,101.0,-0.02,0.95,0.24,-29.0,15.0,3.0,ga
98.0,0.0,142.0,11.0,90.0,24.0,59.0,101.0,-0.02,0.94,0.26,-26.0,19.0,2.0,ga
100.0,0.0,142.0,11.0,90.0,25.0,62.0,101.0,-0.04,0.94,0.29,-24.0,28.0,1.0,ga
98.0,0.0,141.0,11.0,93.0,25.0,59.0,99.0,-0.04,0.93,0.3,-18.0,29.0,1.0,ga
98.0,0.0,141.0,11.0,90.0,25.0,57.0,101.0,-0.05,0.93,0.32,-10.0,33.0,1.0,ga
100.0,0.0,141.0,11.0,90.0,25.0,59.0,99.0,-0.06,0.93,0.32,-3.0,36.0,1.0,ga
98.0,0.0,140.0,11.0,90.0,25.0,52.0,99.0,-0.06,0.93,0.31,-1.0,40.0,0.0,ga
104.0,0.0,141.0,11.0,84.0,25.0,57.0,99.0,-0.09,0.93,0.31,0.0,43.0,0.0,ga
102.0,0.0,142.0,11.0,87.0,25.0,54.0,106.0,-0.11,0.93,0.31,0.0,41.0,0.0,ga
108.0,0.0,142.0,11.0,87.0,25.0,52.0,104.0,-0.12,0.93,0.3,-1.0,39.0,1.0,ga
106.0,0.0,142.0,11.0,87.0,25.0,54.0,104.0,-0.12,0.93,0.29,-1.0,40.0,1.0,ga
106.0,0.0,141.0,12.0,96.0,25.0,52.0,104.0,-0.13,0.93,0.28,0.0,36.0,3.0,ga
106.0,0.0,141.0,12.0,93.0,25.0,52.0,104.0,-0.12,0.94,0.27,0.0,28.0,2.0,ga
106.0,0.0,142.0,12.0,96.0,24.0,52.0,104.0,-0.14,0.93,0.27,0.0,27.0,2.0,ga
108.0,0.0,140.0,13.0,96.0,24.0,71.0,104.0,-0.15,0.93,0.27,1.0,16.0,1.0,ga
108.0,0.0,139.0,12.0,99.0,24.0,69.0,101.0,-0.15,0.93,0.26,1.0,5.0,1.0,ga
108.0,0.0,139.0,12.0,99.0,24.0,78.0,104.0,-0.16,0.93,0.26,1.0,-7.0,0.0,ga
108.0,0.0,139.0,12.0,102.0,24.0,78.0,104.0,-0.14,0.94,0.25,2.0,-16.0,-1.0,ga
108.0,0.0,138.0,12.0,99.0,25.0,81.0,104.0,-0.14,0.93,0.25,3.0,-22.0,-3.0,ga
110.0,0.0,142.0,12.0,96.0,25.0,83.0,94.0,-0.14,0.94,0.25,5.0,-30.0,-5.0,ga
110.0,0.0,142.0,11.0,99.0,27.0,83.0,94.0,-0.13,0.94,0.25,7.0,-46.0,-7.0,ga
110.0,0.0,143.0,10.0,96.0,24.0,85.0,94.0,-0.13,0.94,0.25,8.0,-52.0,-8.0,ga
108.0,0.0,142.0,10.0,96.0,24.0,83.0,94.0,-0.12,0.94,0.25,10.0,-61.0,-10.0,ga
108.0,0.0,143.0,9.0,96.0,22.0,81.0,94.0,-0.11,0.94,0.24,11.0,-67.0,-10.0,ga
106.0,0.0,144.0,8.0,93.0,24.0,64.0,94.0,-0.1,0.95,0.23,12.0,-72.0,-10.0,ga
106.0,0.0,144.0,8.0,93.0,24.0,62.0,94.0,-0.09,0.95,0.23,11.0,-70.0,-10.0,ga
108.0,0.0,144.0,8.0,93.0,24.0,59.0,91.0,-0.08,0.95,0.23,11.0,-72.0,-9.0,ga
104.0,0.0,144.0,7.0,96.0,24.0,59.0,91.0,-0.08,0.95,0.23,11.0,-73.0,-8.0,ga
106.0,0.0,145.0,8.0,93.0,22.0,59.0,91.0,-0.07,0.95,0.22,10.0,-76.0,-6.0,ga
102.0,0.0,141.0,8.0,96.0,21.0,50.0,99.0,-0.05,0.96,0.22,9.0,-74.0,-4.0,ga
104.0,0.0,142.0,9.0,99.0,19.0,47.0,101.0,-0.05,0.95,0.22,8.0,-70.0,-3.0,ga
104.0,0.0,142.0,10.0,99.0,21.0,47.0,99.0,-0.03,0.96,0.21,7.0,-69.0,-2.0,ga
102.0,0.0,141.0,10.0,96.0,22.0,50.0,99.0,-0.02,0.96,0.21,6.0,-65.0,0.0,ga
106.0,0.0,141.0,11.0,93.0,24.0,52.0,101.0,0.01,0.96,0.21,4.0,-61.0,0.0,ga
104.0,0.0,141.0,11.0,93.0,24.0,52.0,101.0,0.02,0.96,0.21,3.0,-50.0,0.0,ga
104.0,0.0,140.0,11.0,93.0,24.0,54.0,101.0,0.04,0.96,0.2,2.0,-37.0,1.0,ga
98.0,0.0,140.0,11.0,90.0,24.0,57.0,101.0,0.04,0.96,0.2,2.0,-24.0,1.0,ga
100.0,0.0,139.0,11.0,90.0,24.0,54.0,101.0,0.06,0.96,0.19,1.0,-6.0,0.0,ga
94.0,0.0,138.0,10.0,90.0,24.0,54.0,101.0,0.05,0.96,0.19,2.0,7.0,0.0,ga
92.0,0.0,132.0,11.0,93.0,24.0,64.0,104.0,0.07,0.97,0.18,0.0,23.0,-1.0,ga
96.0,0.0,133.0,11.0,90.0,24.0,66.0,104.0,0.05,0.97,0.19,1.0,35.0,-2.0,ga
96.0,0.0,133.0,11.0,93.0,24.0,50.0,104.0,0.05,0.97,0.17,0.0,47.0,-3.0,ga
98.0,0.0,133.0,11.0,99.0,22.0,50.0,106.0,0.03,0.97,0.18,1.0,58.0,-2.0,ga
98.0,0.0,133.0,13.0,96.0,22.0,47.0,104.0,0.02,0.97,0.17,1.0,64.0,-2.0,ga
98.0,0.0,134.0,13.0,99.0,22.0,47.0,101.0,0.01,0.97,0.17,0.0,71.0,-1.0,ga
100.0,0.0,135.0,13.0,96.0,22.0,47.0,101.0,-0.01,0.97,0.16,0.0,72.0,0.0,ga
102.0,0.0,136.0,14.0,99.0,22.0,45.0,99.0,-0.02,0.97,0.16,-3.0,77.0,0.0,ga
104.0,0.0,134.0,13.0,99.0,22.0,47.0,101.0,-0.04,0.97,0.16,-3.0,70.0,0.0,ga
108.0,0.0,135.0,14.0,99.0,22.0,45.0,99.0,-0.04,0.97,0.16,-5.0,72.0,1.0,ga
112.0,0.0,142.0,14.0,96.0,24.0,45.0,99.0,-0.06,0.97,0.16,-4.0,67.0,1.0,ga
112.0,0.0,141.0,13.0,93.0,25.0,47.0,99.0,-0.06,0.97,0.15,-6.0,69.0,1.0,ga
112.0,0.0,142.0,13.0,93.0,24.0,59.0,101.0,-0.07,0.97,0.16,-7.0,68.0,2.0,ga
112.0,0.0,142.0,13.0,93.0,24.0,62.0,101.0,-0.08,0.97,0.15,-8.0,70.0,1.0,ga
108.0,0.0,142.0,11.0,96.0,24.0,62.0,101.0,-0.09,0.97,0.15,-9.0,71.0,1.0,ga
110.0,0.0,142.0,11.0,93.0,24.0,64.0,104.0,-0.1,0.97,0.15,-9.0,69.0,1.0,ga
110.0,0.0,141.0,11.0,96.0,25.0,62.0,104.0,-0.11,0.96,0.15,-10.0,68.0,1.0,ga
110.0,0.0,139.0,11.0,99.0,25.0,64.0,104.0,-0.12,0.96,0.15,-10.0,65.0,1.0,ga
104.0,0.0,142.0,10.0,96.0,25.0,64.0,106.0,-0.13,0.96,0.15,-10.0,66.0,1.0,ga
104.0,0.0,142.0,10.0,99.0,25.0,64.0,106.0,-0.13,0.96,0.14,-10.0,65.0,0.0,ga
102.0,0.0,141.0,10.0,99.0,25.0,64.0,106.0,-0.14,0.96,0.14,-10.0,65.0,0.0,ga
96.0,0.0,141.0,9.0,102.0,25.0,62.0,106.0,-0.15,0.96,0.14,-10.0,62.0,1.0,ga
98.0,0.0,140.0,11.0,102.0,25.0,62.0,106.0,-0.16,0.96,0.14,-9.0,61.0,1.0,ga
98.0,0.0,139.0,12.0,102.0,27.0,62.0,106.0,-0.16,0.96,0.13,-9.0,58.0,1.0,ga
96.0,0.0,140.0,11.0,81.0,25.0,62.0,106.0,-0.17,0.95,0.14,-8.0,58.0,1.0,ga
96.0,0.0,140.0,11.0,81.0,25.0,62.0,106.0,-0.17,0.95,0.13,-8.0,57.0,1.0,ga
96.0,0.0,141.0,11.0,81.0,24.0,59.0,106.0,-0.18,0.95,0.13,-7.0,55.0,1.0,ga
96.0,0.0,142.0,11.0,81.0,24.0,62.0,106.0,-0.17,0.95,0.12,-7.0,54.0,1.0,ga
102.0,0.0,142.0,11.0,84.0,24.0,62.0,106.0,-0.18,0.95,0.12,-6.0,53.0,1.0,ga
104.0,0.0,143.0,12.0,84.0,24.0,64.0,106.0,-0.18,0.95,0.11,-7.0,53.0,1.0,ga
102.0,0.0,142.0,13.0,84.0,24.0,64.0,106.0,-0.19,0.95,0.11,-6.0,52.0,2.0,ga
102.0,0.0,142.0,12.0,87.0,24.0,59.0,106.0,-0.19,0.95,0.1,-8.0,55.0,2.0,ga
102.0,0.0,142.0,11.0,84.0,24.0,59.0,106.0,-0.19,0.95,0.1,-7.0,55.0,2.0,ga
100.0,0.0,142.0,9.0,87.0,22.0,57.0,106.0,-0.19,0.95,0.09,-7.0,55.0,3.0,ga
94.0,0.0,140.0,10.0,105.0,22.0,59.0,114.0,-0.19,0.96,0.08,-7.0,54.0,3.0,ga
94.0,0.0,140.0,10.0,105.0,22.0,62.0,114.0,-0.2,0.95,0.08,-7.0,53.0,3.0,ga
94.0,0.0,140.0,10.0,99.0,22.0,64.0,114.0,-0.19,0.96,0.07,-8.0,53.0,3.0,ga
94.0,0.0,139.0,10.0,96.0,22.0,64.0,114.0,-0.2,0.95,0.07,-7.0,50.0,4.0,ga
92.0,0.0,140.0,11.0,96.0,22.0,62.0,114.0,-0.2,0.95,0.06,-7.0,48.0,4.0,ga
94.0,0.0,140.0,10.0,90.0,24.0,64.0,114.0,-0.21,0.95,0.06,-5.0,42.0,3.0,ga
88.0,0.0,140.0,10.0,93.0,22.0,66.0,114.0,-0.21,0.95,0.06,-5.0,36.0,2.0,ga
90.0,0.0,140.0,10.0,90.0,24.0,59.0,114.0,-0.21,0.95,0.06,-4.0,26.0,2.0,ga
