idxUp,idxLow,midUp,midLow,ringUp,ringLow,thumb,pinky,ax,ay,az,gx,gy,gz,label
0.0,0.0,171.0,83.0,414.0,158.0,0.0,358.0,-0.14,0.93,0.28,0.0,9.0,1.0,kha
0.0,0.0,168.0,82.0,384.0,149.0,0.0,333.0,-0.15,0.93,0.28,1.0,9.0,2.0,kha
0.0,0.0,165.0,80.0,360.0,140.0,0.0,310.0,-0.15,0.94,0.27,0.0,10.0,2.0,kha
0.0,0.0,163.0,79.0,327.0,128.0,0.0,290.0,-0.14,0.94,0.27,-4.0,9.0,2.0,kha
0.0,0.0,160.0,79.0,300.0,116.0,0.0,262.0,-0.14,0.94,0.26,-10.0,11.0,2.0,kha
0.0,0.0,158.0,76.0,273.0,104.0,0.0,236.0,-0.16,0.92,0.27,-11.0,8.0,3.0,kha
0.0,0.0,157.0,71.0,246.0,92.0,0.0,213.0,-0.15,0.93,0.28,-9.0,7.0,4.0,kha
0.0,0.0,155.0,67.0,219.0,78.0,0.0,188.0,-0.15,0.93,0.29,-8.0,6.0,4.0,kha
0.0,0.0,153.0,62.0,189.0,66.0,0.0,160.0,-0.15,0.94,0.3,-5.0,7.0,5.0,kha
0.0,0.0,151.0,58.0,153.0,51.0,0.0,134.0,-0.15,0.94,0.3,-5.0,6.0,7.0,kha
0.0,0.0,150.0,58.0,153.0,51.0,0.0,134.0,-0.13,0.94,0.31,-3.0,4.0,10.0,kha
0.0,0.0,151.0,57.0,150.0,51.0,0.0,137.0,-0.12,0.94,0.31,-2.0,4.0,11.0,kha
0.0,0.0,150.0,58.0,147.0,51.0,0.0,134.0,-0.11,0.93,0.31,1.0,2.0,12.0,kha
0.0,0.0,150.0,58.0,150.0,51.0,0.0,134.0,-0.1,0.93,0.31,3.0,2.0,12.0,kha
0.0,0.0,150.0,58.0,144.0,51.0,0.0,132.0,-0.08,0.93,0.31,1.0,0.0,13.0,kha
0.0,0.0,150.0,58.0,138.0,51.0,0.0,132.0,-0.06,0.94,0.32,0.0,-1.0,13.0,kha
0.0,0.0,148.0,58.0,135.0,51.0,0.0,127.0,-0.05,0.94,0.33,-3.0,-2.0,13.0,kha
0.0,0.0,146.0,57.0,132.0,51.0,0.0,127.0,-0.03,0.93,0.32,-5.0,-4.0,13.0,kha
0.0,0.0,147.0,57.0,132.0,51.0,0.0,127.0,-0.01,0.92,0.31,-6.0,-4.0,13.0,kha
0.0,0.0,146.0,57.0,135.0,51.0,0.0,127.0,-0.0,0.92,0.3,-6.0,-4.0,11.0,kha
0.0,0.0,147.0,57.0,135.0,51.0,0.0,129.0,0.0,0.92,0.3,-7.0,-1.0,8.0,kha
0.0,0.0,146.0,56.0,138.0,49.0,0.0,124.0,0.01,0.92,0.31,-8.0,0.0,7.0,kha
0.0,0.0,146.0,56.0,141.0,49.0,0.0,127.0,0.02,0.93,0.32,-8.0,1.0,5.0,kha
0.0,0.0,146.0,55.0,135.0,49.0,0.0,124.0,0.02,0.94,0.32,-7.0,2.0,4.0,kha
0.0,0.0,146.0,55.0,138.0,48.0,0.0,124.0,0.03,0.93,0.32,-4.0,3.0,3.0,kha
0.0,0.0,147.0,55.0,141.0,49.0,0.0,129.0,0.02,0.93,0.31,0.0,3.0,1.0,kha
0.0,0.0,148.0,55.0,141.0,48.0,0.0,134.0,0.03,0.93,0.3,2.0,3.0,0.0,kha
0.0,0.0,148.0,56.0,141.0,48.0,0.0,134.0,0.03,0.94,0.29,3.0,4.0,-1.0,kha
0.0,0.0,148.0,56.0,141.0,48.0,0.0,134.0,0.03,0.94,0.3,2.0,3.0,-2.0,kha
0.0,0.0,148.0,56.0,144.0,48.0,0.0,129.0,0.03,0.94,0.3,1.0,2.0,-2.0,kha
0.0,0.0,148.0,56.0,141.0,48.0,0.0,127.0,0.03,0.94,0.3,1.0,1.0,-3.0,kha
0.0,0.0,148.0,57.0,129.0,49.0,0.0,129.0,0.03,0.94,0.3,2.0,1.0,-2.0,kha
0.0,0.0,148.0,57.0,126.0,49.0,0.0,127.0,0.03,0.94,0.29,1.0,1.0,-1.0,kha
0.0,0.0,147.0,57.0,129.0,48.0,0.0,127.0,0.03,0.94,0.28,1.0,1.0,-2.0,kha
0.0,0.0,147.0,57.0,126.0,48.0,0.0,129.0,0.03,0.94,0.28,0.0,2.0,-2.0,kha
0.0,0.0,147.0,57.0,126.0,48.0,0.0,124.0,0.03,0.95,0.28,0.0,1.0,-2.0,kha
0.0,0.0,146.0,56.0,129.0,48.0,0.0,124.0,0.03,0.95,0.28,-1.0,2.0,-2.0,kha
0.0,0.0,146.0,56.0,129.0,48.0,0.0,124.0,0.03,0.94,0.29,-2.0,1.0,-2.0,kha
0.0,0.0,146.0,56.0,126.0,45.0,0.0,124.0,0.03,0.94,0.29,0.0,2.0,-2.0,kha
0.0,0.0,145.0,56.0,123.0,45.0,0.0,124.0,0.02,0.94,0.29,-1.0,2.0,-2.0,kha
0.0,0.0,145.0,56.0,120.0,48.0,0.0,122.0,0.02,0.94,0.29,-2.0,3.0,-2.0,kha
0.0,0.0,145.0,57.0,126.0,48.0,0.0,124.0,0.02,0.94,0.29,-3.0,3.0,-2.0,kha
0.0,0.0,145.0,57.0,126.0,49.0,0.0,127.0,0.02,0.94,0.3,-2.0,3.0,-2.0,kha
0.0,0.0,146.0,57.0,132.0,48.0,0.0,132.0,0.02,0.94,0.29,-2.0,2.0,-2.0,kha
0.0,0.0,146.0,58.0,129.0,48.0,0.0,129.0,0.01,0.94,0.29,-2.0,2.0,-2.0,kha
0.0,0.0,146.0,58.0,132.0,46.0,0.0,129.0,0.01,0.94,0.29,-2.0,2.0,-2.0,kha
0.0,0.0,146.0,58.0,132.0,46.0,0.0,134.0,0.01,0.94,0.29,-2.0,2.0,-2.0,kha
0.0,0.0,146.0,58.0,132.0,46.0,0.0,132.0,0.01,0.94,0.29,-3.0,3.0,-1.0,kha
0.0,0.0,146.0,58.0,132.0,48.0,0.0,134.0,0.0,0.94,0.29,-4.0,3.0,-1.0,kha
0.0,0.0,147.0,59.0,129.0,49.0,0.0,137.0,0.0,0.94,0.3,-4.0,4.0,0.0,kha
0.0,0.0,147.0,60.0,132.0,46.0,0.0,139.0,0.0,0.95,0.3,-3.0,4.0,0.0,kha
0.0,0.0,147.0,60.0,135.0,46.0,0.0,139.0,0.0,0.94,0.3,-2.0,3.0,1.0,kha
0.0,0.0,147.0,61.0,132.0,40.0,0.0,137.0,0.0,0.94,0.3,-2.0,3.0,1.0,kha
0.0,0.0,147.0,61.0,132.0,42.0,0.0,134.0,0.0,0.94,0.3,0.0,2.0,1.0,kha
0.0,0.0,147.0,61.0,132.0,42.0,0.0,132.0,0.01,0.94,0.3,-1.0,5.0,0.0,kha
0.0,0.0,148.0,61.0,132.0,46.0,0.0,132.0,0.01,0.94,0.3,-2.0,4.0,0.0,kha
0.0,0.0,148.0,61.0,132.0,46.0,0.0,124.0,0.01,0.94,0.3,-2.0,3.0,1.0,kha
0.0,0.0,148.0,61.0,141.0,46.0,0.0,127.0,0.01,0.94,0.31,-3.0,1.0,3.0,kha
0.0,0.0,148.0,61.0,144.0,46.0,0.0,127.0,0.02,0.94,0.31,-3.0,1.0,5.0,kha
0.0,0.0,148.0,61.0,144.0,46.0,0.0,124.0,0.02,0.94,0.31,-5.0,1.0,6.0,kha
0.0,0.0,148.0,60.0,144.0,46.0,0.0,122.0,0.02,0.93,0.31,-7.0,1.0,7.0,kha
0.0,0.0,147.0,60.0,147.0,45.0,0.0,122.0,0.04,0.93,0.32,-9.0,1.0,9.0,kha
0.0,0.0,148.0,60.0,150.0,51.0,0.0,124.0,0.04,0.93,0.33,-11.0,1.0,11.0,kha
0.0,0.0,148.0,60.0,147.0,51.0,0.0,124.0,0.05,0.93,0.33,-13.0,0.0,13.0,kha
0.0,0.0,148.0,60.0,162.0,51.0,0.0,122.0,0.06,0.93,0.35,-14.0,-2.0,16.0,kha
0.0,0.0,147.0,61.0,162.0,51.0,0.0,127.0,0.08,0.92,0.36,-15.0,0.0,18.0,kha
0.0,0.0,146.0,61.0,162.0,49.0,0.0,127.0,0.1,0.91,0.36,-16.0,0.0,19.0,kha
0.0,0.0,147.0,61.0,153.0,51.0,0.0,124.0,0.12,0.9,0.37,-16.0,1.0,19.0,kha
0.0,0.0,147.0,62.0,153.0,51.0,0.0,124.0,0.13,0.9,0.39,-17.0,1.0,19.0,kha
0.0,0.0,147.0,62.0,156.0,51.0,0.0,127.0,0.16,0.89,0.4,-17.0,1.0,19.0,kha
0.0,0.0,147.0,63.0,156.0,51.0,0.0,132.0,0.17,0.88,0.41,-17.0,1.0,19.0,kha
0.0,0.0,147.0,62.0,153.0,51.0,0.0,132.0,0.19,0.87,0.42,-17.0,1.0,18.0,kha
0.0,0.0,147.0,63.0,153.0,51.0,0.0,129.0,0.21,0.86,0.43,-15.0,1.0,16.0,kha
0.0,0.0,147.0,64.0,153.0,52.0,0.0,129.0,0.22,0.85,0.45,-16.0,2.0,15.0,kha
0.0,0.0,146.0,64.0,138.0,51.0,0.0,132.0,0.24,0.85,0.46,-15.0,3.0,15.0,kha
0.0,0.0,147.0,64.0,138.0,48.0,0.0,132.0,0.25,0.84,0.47,-15.0,3.0,13.0,kha
0.0,0.0,147.0,64.0,138.0,48.0,0.0,132.0,0.26,0.83,0.48,-13.0,3.0,11.0,kha
0.0,0.0,147.0,65.0,135.0,49.0,0.0,132.0,0.27,0.82,0.49,-9.0,2.0,8.0,kha
0.0,0.0,146.0,65.0,132.0,49.0,0.0,129.0,0.27,0.81,0.5,-5.0,3.0,5.0,kha
0.0,0.0,148.0,65.0,132.0,49.0,0.0,129.0,0.27,0.81,0.5,0.0,3.0,0.0,kha
0.0,0.0,147.0,64.0,132.0,49.0,0.0,124.0,0.27,0.82,0.49,4.0,3.0,-4.0,kha
0.0,0.0,147.0,62.0,132.0,48.0,0.0,124.0,0.27,0.83,0.48,8.0,3.0,-8.0,kha
0.0,0.0,149.0,62.0,129.0,49.0,0.0,122.0,0.26,0.83,0.48,11.0,3.0,-11.0,kha
0.0,0.0,148.0,61.0,129.0,49.0,0.0,122.0,0.25,0.85,0.46,14.0,3.0,-14.0,kha
0.0,0.0,149.0,61.0,132.0,49.0,0.0,122.0,0.24,0.86,0.45,17.0,2.0,-17.0,kha
0.0,0.0,149.0,61.0,132.0,49.0,0.0,119.0,0.22,0.87,0.43,19.0,2.0,-19.0,kha
0.0,0.0,149.0,61.0,129.0,49.0,0.0,122.0,0.21,0.88,0.41,22.0,1.0,-21.0,kha
0.0,0.0,150.0,61.0,129.0,48.0,0.0,122.0,0.19,0.9,0.39,21.0,1.0,-21.0,kha
0.0,0.0,150.0,62.0,129.0,49.0,0.0,122.0,0.18,0.91,0.37,22.0,0.0,-21.0,kha
0.0,0.0,149.0,61.0,129.0,49.0,0.0,119.0,0.16,0.92,0.35,21.0,-1.0,-20.0,kha
0.0,0.0,148.0,61.0,132.0,48.0,0.0,122.0,0.14,0.92,0.33,20.0,-2.0,-19.0,kha
0.0,0.0,149.0,63.0,129.0,48.0,0.0,122.0,0.12,0.93,0.31,19.0,-3.0,-18.0,kha
0.0,0.0,147.0,63.0,132.0,48.0,0.0,122.0,0.11,0.94,0.29,19.0,-4.0,-17.0,kha
0.0,0.0,147.0,62.0,132.0,48.0,0.0,122.0,0.09,0.94,0.27,19.0,-6.0,-16.0,kha
0.0,0.0,147.0,62.0,129.0,46.0,0.0,122.0,0.08,0.95,0.25,19.0,-6.0,-16.0,kha
0.0,0.0,146.0,62.0,129.0,46.0,0.0,122.0,0.07,0.96,0.23,19.0,-7.0,-15.0,kha
0.0,0.0,146.0,62.0,129.0,46.0,0.0,119.0,0.06,0.96,0.21,18.0,-7.0,-15.0,kha
0.0,0.0,146.0,61.0,141.0,46.0,0.0,119.0,0.04,0.97,0.19,17.0,-7.0,-14.0,kha
0.0,0.0,146.0,62.0,141.0,45.0,0.0,117.0,0.03,0.97,0.18,15.0,-7.0,-14.0,kha
0.0,0.0,145.0,62.0,141.0,46.0,0.0,119.0,0.02,0.98,0.16,15.0,-7.0,-12.0,kha
0.0,0.0,144.0,61.0,141.0,49.0,0.0,117.0,0.01,0.98,0.15,14.0,-7.0,-12.0,kha
0.0,0.0,144.0,61.0,138.0,49.0,0.0,117.0,0.0,0.98,0.13,14.0,-7.0,-11.0,kha
0.0,0.0,144.0,61.0,138.0,49.0,0.0,119.0,0.0,0.98,0.12,12.0,-6.0,-10.0,kha
0.0,0.0,145.0,61.0,138.0,49.0,0.0,117.0,-0.01,0.98,0.11,11.0,-5.0,-10.0,kha
0.0,0.0,144.0,60.0,135.0,49.0,0.0,119.0,-0.02,0.98,0.1,10.0,-5.0,-9.0,kha
0.0,0.0,144.0,59.0,135.0,51.0,0.0,122.0,-0.02,0.98,0.09,9.0,-5.0,-8.0,kha
0.0,0.0,144.0,58.0,135.0,51.0,0.0,119.0,-0.03,0.98,0.08,8.0,-4.0,-8.0,kha
0.0,0.0,144.0,59.0,126.0,51.0,0.0,117.0,-0.04,0.98,0.07,6.0,-3.0,-7.0,kha
0.0,0.0,145.0,58.0,144.0,51.0,0.0,119.0,-0.04,0.98,0.07,6.0,-2.0,-7.0,kha
0.0,0.0,145.0,57.0,144.0,51.0,0.0,119.0,-0.05,0.98,0.06,4.0,-1.0,-6.0,kha
0.0,0.0,146.0,57.0,141.0,46.0,0.0,119.0,-0.05,0.99,0.06,4.0,0.0,-5.0,kha
0.0,0.0,146.0,56.0,141.0,46.0,0.0,122.0,-0.05,0.99,0.06,2.0,0.0,-3.0,kha
0.0,0.0,147.0,55.0,132.0,45.0,0.0,122.0,-0.06,0.99,0.06,2.0,0.0,-2.0,kha
0.0,0.0,147.0,55.0,132.0,46.0,0.0,124.0,-0.06,0.99,0.05,0.0,-1.0,-1.0,kha
0.0,0.0,147.0,55.0,132.0,46.0,0.0,122.0,-0.06,0.98,0.05,1.0,0.0,0.0,kha
0.0,0.0,147.0,55.0,135.0,45.0,0.0,122.0,-0.06,0.98,0.04,0.0,0.0,0.0,kha
0.0,0.0,148.0,55.0,135.0,45.0,0.0,124.0,-0.06,0.97,0.04,0.0,-1.0,-1.0,kha
0.0,0.0,148.0,53.0,135.0,43.0,0.0,124.0,-0.06,0.97,0.04,2.0,-1.0,-2.0,kha
0.0,0.0,149.0,53.0,117.0,43.0,0.0,127.0,-0.06,0.97,0.03,2.0,-2.0,-4.0,kha
0.0,0.0,149.0,51.0,120.0,43.0,0.0,124.0,-0.06,0.97,0.03,4.0,-2.0,-6.0,kha
0.0,0.0,148.0,51.0,120.0,43.0,0.0,124.0,-0.07,0.96,0.02,4.0,-2.0,-7.0,kha
0.0,0.0,148.0,51.0,123.0,43.0,0.0,122.0,-0.07,0.97,0.01,4.0,-1.0,-8.0,kha
0.0,0.0,147.0,51.0,135.0,43.0,0.0,122.0,-0.08,0.97,0.0,2.0,0.0,-7.0,kha
0.0,0.0,147.0,51.0,135.0,43.0,0.0,119.0,-0.09,0.97,0.0,0.0,1.0,-2.0,kha
0.0,0.0,147.0,50.0,138.0,43.0,0.0,119.0,-0.08,0.98,0.01,-5.0,3.0,3.0,kha
0.0,0.0,147.0,50.0,135.0,43.0,0.0,119.0,-0.07,0.99,0.01,-9.0,4.0,8.0,kha
0.0,0.0,146.0,50.0,135.0,43.0,0.0,122.0,-0.07,0.99,0.03,-13.0,6.0,12.0,kha
0.0,0.0,149.0,51.0,138.0,42.0,0.0,124.0,-0.06,0.98,0.04,-17.0,7.0,17.0,kha
0.0,0.0,148.0,51.0,141.0,42.0,0.0,127.0,-0.04,0.98,0.06,-20.0,8.0,22.0,kha
0.0,0.0,148.0,55.0,135.0,42.0,0.0,124.0,-0.02,0.97,0.07,-23.0,8.0,26.0,kha
0.0,0.0,149.0,55.0,135.0,42.0,0.0,127.0,0.0,0.97,0.1,-26.0,9.0,30.0,kha
0.0,0.0,149.0,56.0,129.0,45.0,0.0,127.0,0.03,0.96,0.12,-28.0,10.0,33.0,kha
0.0,0.0,150.0,54.0,126.0,45.0,0.0,124.0,0.07,0.96,0.16,-28.0,11.0,34.0,kha
0.0,0.0,150.0,54.0,141.0,45.0,0.0,129.0,0.1,0.95,0.18,-26.0,10.0,32.0,kha
0.0,0.0,150.0,55.0,141.0,45.0,0.0,129.0,0.12,0.94,0.2,-24.0,8.0,28.0,kha
0.0,0.0,149.0,56.0,141.0,46.0,0.0,129.0,0.14,0.93,0.22,-20.0,7.0,24.0,kha
0.0,0.0,150.0,56.0,144.0,45.0,0.0,124.0,0.16,0.93,0.23,-17.0,6.0,22.0,kha
0.0,0.0,147.0,57.0,141.0,46.0,0.0,124.0,0.18,0.92,0.25,-15.0,5.0,19.0,kha
0.0,0.0,144.0,58.0,135.0,43.0,0.0,122.0,0.19,0.92,0.26,-13.0,6.0,18.0,kha
0.0,0.0,144.0,58.0,135.0,43.0,0.0,122.0,0.21,0.92,0.27,-11.0,6.0,16.0,kha
0.0,0.0,144.0,59.0,147.0,43.0,0.0,124.0,0.23,0.91,0.27,-8.0,6.0,13.0,kha
0.0,0.0,144.0,60.0,150.0,42.0,0.0,124.0,0.24,0.91,0.28,-6.0,4.0,10.0,kha
0.0,0.0,143.0,62.0,156.0,40.0,0.0,127.0,0.24,0.9,0.28,-4.0,4.0,7.0,kha
0.0,0.0,143.0,63.0,141.0,42.0,0.0,127.0,0.25,0.9,0.28,-3.0,3.0,5.0,kha
0.0,0.0,143.0,63.0,138.0,42.0,0.0,127.0,0.25,0.9,0.28,-2.0,4.0,4.0,kha
0.0,0.0,144.0,63.0,141.0,42.0,0.0,119.0,0.26,0.9,0.28,-2.0,4.0,3.0,kha
0.0,0.0,144.0,64.0,132.0,40.0,0.0,122.0,0.27,0.9,0.28,-1.0,4.0,2.0,kha
0.0,0.0,143.0,64.0,132.0,40.0,0.0,127.0,0.27,0.9,0.28,0.0,4.0,1.0,kha
0.0,0.0,146.0,64.0,138.0,45.0,0.0,127.0,0.27,0.91,0.28,0.0,3.0,0.0,kha
0.0,0.0,146.0,64.0,138.0,45.0,0.0,129.0,0.27,0.91,0.28,1.0,2.0,0.0,kha
0.0,0.0,146.0,62.0,126.0,45.0,0.0,129.0,0.27,0.91,0.28,1.0,2.0,0.0,kha
0.0,0.0,146.0,61.0,126.0,43.0,0.0,129.0,0.27,0.91,0.27,1.0,1.0,-1.0,kha
0.0,0.0,146.0,61.0,126.0,43.0,0.0,127.0,0.27,0.92,0.27,2.0,0.0,0.0,kha
0.0,0.0,146.0,61.0,129.0,43.0,0.0,127.0,0.27,0.92,0.27,1.0,1.0,0.0,kha
0.0,0.0,145.0,61.0,132.0,42.0,0.0,124.0,0.27,0.92,0.27,2.0,1.0,0.0,kha
0.0,0.0,143.0,61.0,135.0,40.0,0.0,129.0,0.27,0.92,0.26,1.0,1.0,0.0,kha
0.0,0.0,144.0,60.0,147.0,43.0,0.0,132.0,0.27,0.92,0.26,2.0,0.0,0.0,kha
0.0,0.0,145.0,59.0,147.0,43.0,0.0,124.0,0.27,0.92,0.26,2.0,0.0,0.0,kha
0.0,0.0,145.0,59.0,144.0,42.0,0.0,122.0,0.27,0.92,0.25,1.0,0.0,0.0,kha
0.0,0.0,144.0,58.0,147.0,42.0,0.0,122.0,0.27,0.92,0.25,1.0,1.0,0.0,kha
0.0,0.0,145.0,59.0,147.0,43.0,0.0,122.0,0.27,0.92,0.25,0.0,0.0,0.0,kha
0.0,0.0,144.0,59.0,147.0,43.0,0.0,119.0,0.27,0.92,0.25,0.0,1.0,0.0,kha
0.0,0.0,145.0,60.0,141.0,45.0,0.0,119.0,0.27,0.92,0.25,0.0,0.0,0.0,kha
0.0,0.0,145.0,59.0,138.0,43.0,0.0,117.0,0.27,0.92,0.24,0.0,0.0,0.0,kha
0.0,0.0,144.0,59.0,138.0,45.0,0.0,119.0,0.27,0.92,0.24,0.0,0.0,-1.0,kha
0.0,0.0,146.0,58.0,132.0,46.0,0.0,119.0,0.27,0.92,0.24,0.0,0.0,-1.0,kha
0.0,0.0,145.0,59.0,129.0,45.0,0.0,117.0,0.27,0.92,0.23,0.0,0.0,-1.0,kha
0.0,0.0,145.0,59.0,132.0,45.0,0.0,119.0,0.27,0.92,0.23,0.0,1.0,0.0,kha
0.0,0.0,144.0,58.0,132.0,45.0,0.0,119.0,0.27,0.92,0.23,0.0,1.0,0.0,kha
0.0,0.0,144.0,58.0,126.0,46.0,0.0,119.0,0.27,0.92,0.23,0.0,1.0,0.0,kha
0.0,0.0,144.0,58.0,126.0,45.0,0.0,122.0,0.27,0.92,0.23,1.0,1.0,0.0,kha
0.0,0.0,146.0,57.0,126.0,46.0,0.0,122.0,0.27,0.92,0.22,0.0,1.0,0.0,kha
0.0,0.0,146.0,58.0,129.0,46.0,0.0,122.0,0.27,0.92,0.22,0.0,1.0,0.0,kha
0.0,0.0,146.0,58.0,129.0,48.0,0.0,122.0,0.27,0.93,0.22,0.0,2.0,-1.0,kha
0.0,0.0,146.0,58.0,129.0,46.0,0.0,124.0,0.27,0.92,0.22,-3.0,3.0,-2.0,kha
0.0,0.0,145.0,57.0,129.0,45.0,0.0,122.0,0.28,0.93,0.22,-8.0,6.0,-5.0,kha
0.0,0.0,145.0,58.0,123.0,46.0,0.0,122.0,0.28,0.94,0.23,-13.0,8.0,-8.0,kha
0.0,0.0,145.0,58.0,123.0,46.0,0.0,114.0,0.27,0.93,0.25,-21.0,16.0,-12.0,kha
0.0,0.0,145.0,58.0,123.0,46.0,0.0,114.0,0.25,0.92,0.27,-24.0,17.0,-15.0,kha
0.0,0.0,145.0,58.0,123.0,46.0,0.0,109.0,0.23,0.91,0.29,-28.0,22.0,-17.0,kha
0.0,0.0,145.0,58.0,126.0,45.0,0.0,111.0,0.21,0.9,0.32,-31.0,21.0,-18.0,kha
0.0,0.0,144.0,58.0,123.0,45.0,0.0,114.0,0.19,0.9,0.35,-35.0,25.0,-20.0,kha
0.0,0.0,144.0,58.0,126.0,45.0,0.0,114.0,0.17,0.89,0.38,-39.0,25.0,-22.0,kha
0.0,0.0,144.0,58.0,126.0,45.0,0.0,114.0,0.14,0.88,0.42,-43.0,28.0,-23.0,kha
0.0,0.0,144.0,58.0,120.0,46.0,0.0,111.0,0.1,0.86,0.45,-43.0,29.0,-23.0,kha
0.0,0.0,145.0,57.0,117.0,48.0,0.0,111.0,0.06,0.84,0.49,-43.0,28.0,-22.0,kha
0.0,0.0,145.0,57.0,123.0,46.0,0.0,111.0,0.03,0.82,0.53,-39.0,27.0,-20.0,kha
0.0,0.0,145.0,57.0,129.0,46.0,0.0,114.0,0.0,0.81,0.56,-33.0,20.0,-16.0,kha
0.0,0.0,145.0,57.0,126.0,46.0,0.0,117.0,-0.01,0.8,0.57,-31.0,19.0,-14.0,kha
0.0,0.0,146.0,57.0,126.0,46.0,0.0,124.0,-0.03,0.79,0.6,-29.0,16.0,-13.0,kha
0.0,0.0,146.0,57.0,126.0,48.0,0.0,124.0,-0.05,0.77,0.62,-29.0,16.0,-13.0,kha
0.0,0.0,146.0,58.0,129.0,48.0,0.0,119.0,-0.07,0.76,0.64,-27.0,13.0,-12.0,kha
0.0,0.0,146.0,58.0,117.0,48.0,0.0,119.0,-0.08,0.74,0.66,-23.0,13.0,-10.0,kha
0.0,0.0,146.0,58.0,120.0,48.0,0.0,119.0,-0.1,0.72,0.67,-18.0,10.0,-9.0,kha
0.0,0.0,145.0,58.0,123.0,46.0,0.0,119.0,-0.1,0.72,0.68,-16.0,8.0,-7.0,kha
0.0,0.0,145.0,58.0,126.0,48.0,0.0,122.0,-0.12,0.7,0.69,-7.0,5.0,-4.0,kha
0.0,0.0,146.0,59.0,126.0,48.0,0.0,122.0,-0.11,0.7,0.69,-2.0,1.0,-2.0,kha
0.0,0.0,145.0,58.0,120.0,48.0,0.0,124.0,-0.11,0.7,0.69,6.0,0.0,0.0,kha
0.0,0.0,145.0,60.0,120.0,48.0,0.0,122.0,-0.11,0.71,0.68,11.0,-1.0,2.0,kha
0.0,0.0,144.0,59.0,117.0,46.0,0.0,117.0,-0.11,0.72,0.67,20.0,-7.0,5.0,kha
0.0,0.0,144.0,60.0,114.0,48.0,0.0,117.0,-0.1,0.73,0.65,26.0,-8.0,8.0,kha
0.0,0.0,143.0,59.0,114.0,48.0,0.0,119.0,-0.08,0.76,0.63,32.0,-13.0,11.0,kha
0.0,0.0,143.0,60.0,123.0,48.0,0.0,122.0,-0.07,0.77,0.6,37.0,-14.0,14.0,kha
0.0,0.0,144.0,59.0,123.0,48.0,0.0,122.0,-0.04,0.8,0.56,40.0,-18.0,16.0,kha
0.0,0.0,144.0,59.0,126.0,48.0,0.0,119.0,-0.02,0.81,0.53,46.0,-19.0,17.0,kha
0.0,0.0,145.0,60.0,135.0,45.0,0.0,122.0,0.02,0.84,0.49,44.0,-20.0,17.0,kha
0.0,0.0,144.0,60.0,135.0,46.0,0.0,122.0,0.04,0.87,0.45,43.0,-20.0,18.0,kha
0.0,0.0,144.0,60.0,135.0,46.0,0.0,122.0,0.06,0.89,0.41,40.0,-21.0,18.0,kha
0.0,0.0,144.0,60.0,135.0,46.0,0.0,111.0,0.09,0.9,0.38,38.0,-22.0,18.0,kha
0.0,0.0,144.0,60.0,138.0,46.0,0.0,111.0,0.12,0.91,0.35,35.0,-23.0,18.0,kha
0.0,0.0,144.0,59.0,138.0,46.0,0.0,111.0,0.15,0.93,0.31,32.0,-23.0,18.0,kha
0.0,0.0,144.0,59.0,138.0,45.0,0.0,109.0,0.17,0.93,0.27,30.0,-22.0,17.0,kha
0.0,0.0,144.0,59.0,138.0,45.0,0.0,106.0,0.19,0.94,0.24,25.0,-21.0,16.0,kha
0.0,0.0,144.0,59.0,138.0,45.0,0.0,109.0,0.21,0.94,0.22,24.0,-19.0,16.0,kha
0.0,0.0,143.0,59.0,141.0,45.0,0.0,109.0,0.22,0.95,0.19,20.0,-19.0,15.0,kha
0.0,0.0,144.0,58.0,114.0,45.0,0.0,109.0,0.24,0.96,0.16,20.0,-19.0,16.0,kha
0.0,0.0,143.0,58.0,120.0,42.0,0.0,109.0,0.26,0.95,0.13,18.0,-17.0,15.0,kha
0.0,0.0,143.0,58.0,120.0,43.0,0.0,106.0,0.28,0.95,0.11,16.0,-16.0,14.0,kha
0.0,0.0,143.0,60.0,117.0,43.0,0.0,119.0,0.3,0.95,0.09,15.0,-14.0,13.0,kha
0.0,0.0,143.0,59.0,117.0,42.0,0.0,119.0,0.31,0.95,0.07,11.0,-11.0,10.0,kha
0.0,0.0,143.0,59.0,117.0,42.0,0.0,119.0,0.32,0.94,0.06,12.0,-9.0,10.0,kha
0.0,0.0,143.0,59.0,117.0,42.0,0.0,122.0,0.33,0.94,0.05,10.0,-6.0,7.0,kha
0.0,0.0,143.0,60.0,117.0,42.0,0.0,122.0,0.33,0.94,0.04,11.0,-6.0,7.0,kha
0.0,0.0,143.0,59.0,117.0,42.0,0.0,122.0,0.34,0.93,0.02,8.0,-5.0,5.0,kha
0.0,0.0,143.0,60.0,114.0,42.0,0.0,122.0,0.35,0.93,0.01,7.0,-4.0,4.0,kha
0.0,0.0,142.0,60.0,126.0,42.0,0.0,122.0,0.35,0.92,0.01,5.0,-2.0,3.0,kha
0.0,0.0,142.0,60.0,120.0,42.0,0.0,119.0,0.36,0.93,0.0,5.0,-1.0,2.0,kha
0.0,0.0,141.0,59.0,123.0,40.0,0.0,122.0,0.36,0.93,-0.01,5.0,-1.0,2.0,kha
0.0,0.0,141.0,58.0,129.0,40.0,0.0,122.0,0.36,0.93,-0.01,4.0,0.0,1.0,kha
0.0,0.0,142.0,58.0,129.0,40.0,0.0,122.0,0.36,0.92,-0.02,4.0,0.0,2.0,kha
0.0,0.0,142.0,57.0,132.0,42.0,0.0,119.0,0.36,0.92,-0.03,2.0,0.0,1.0,kha
0.0,0.0,141.0,57.0,135.0,40.0,0.0,119.0,0.37,0.93,-0.03,1.0,0.0,0.0,kha
0.0,0.0,140.0,56.0,135.0,42.0,0.0,119.0,0.37,0.93,-0.04,-2.0,1.0,-2.0,kha
0.0,0.0,142.0,56.0,135.0,40.0,0.0,119.0,0.37,0.94,-0.04,-10.0,7.0,-8.0,kha
0.0,0.0,142.0,56.0,138.0,42.0,0.0,119.0,0.36,0.94,-0.03,-14.0,9.0,-11.0,kha
0.0,0.0,142.0,56.0,144.0,42.0,0.0,122.0,0.35,0.94,-0.02,-19.0,16.0,-14.0,kha
0.0,0.0,142.0,55.0,144.0,42.0,0.0,119.0,0.33,0.94,0.01,-20.0,16.0,-15.0,kha
0.0,0.0,143.0,56.0,144.0,43.0,0.0,117.0,0.31,0.93,0.03,-23.0,23.0,-18.0,kha
0.0,0.0,142.0,57.0,138.0,43.0,0.0,114.0,0.29,0.94,0.05,-26.0,22.0,-20.0,kha
0.0,0.0,143.0,57.0,135.0,42.0,0.0,114.0,0.27,0.94,0.08,-30.0,26.0,-22.0,kha
0.0,0.0,143.0,60.0,135.0,42.0,0.0,119.0,0.26,0.95,0.11,-34.0,24.0,-22.0,kha
0.0,0.0,146.0,60.0,135.0,42.0,0.0,117.0,0.23,0.94,0.16,-33.0,24.0,-20.0,kha
0.0,0.0,146.0,60.0,135.0,42.0,0.0,117.0,0.21,0.94,0.19,-32.0,22.0,-19.0,kha
0.0,0.0,146.0,60.0,129.0,43.0,0.0,117.0,0.18,0.93,0.23,-22.0,15.0,-13.0,kha
0.0,0.0,146.0,60.0,129.0,42.0,0.0,117.0,0.17,0.92,0.25,-19.0,13.0,-10.0,kha
0.0,0.0,146.0,60.0,120.0,43.0,0.0,111.0,0.17,0.93,0.26,-14.0,4.0,-6.0,kha
0.0,0.0,147.0,60.0,123.0,42.0,0.0,114.0,0.17,0.92,0.27,-13.0,4.0,-5.0,kha
0.0,0.0,148.0,60.0,123.0,43.0,0.0,117.0,0.18,0.94,0.28,-11.0,-3.0,-2.0,kha
0.0,0.0,148.0,60.0,123.0,43.0,0.0,117.0,0.17,0.93,0.29,-8.0,-2.0,0.0,kha
0.0,0.0,147.0,58.0,126.0,45.0,0.0,119.0,0.18,0.93,0.3,-4.0,-6.0,1.0,kha
0.0,0.0,147.0,56.0,126.0,45.0,0.0,117.0,0.18,0.93,0.3,0.0,-4.0,2.0,kha
0.0,0.0,145.0,56.0,126.0,45.0,0.0,114.0,0.19,0.93,0.3,0.0,-4.0,2.0,kha
0.0,0.0,147.0,55.0,126.0,46.0,0.0,117.0,0.19,0.93,0.3,1.0,-4.0,2.0,kha
0.0,0.0,147.0,55.0,129.0,45.0,0.0,117.0,0.2,0.93,0.29,1.0,-2.0,1.0,kha
0.0,0.0,146.0,55.0,129.0,45.0,0.0,119.0,0.2,0.93,0.29,1.0,-1.0,1.0,kha
0.0,0.0,146.0,55.0,132.0,45.0,0.0,119.0,0.2,0.93,0.29,1.0,1.0,0.0,kha
0.0,0.0,146.0,55.0,129.0,45.0,0.0,119.0,0.2,0.93,0.29,0.0,1.0,0.0,kha
0.0,0.0,145.0,55.0,126.0,45.0,0.0,119.0,0.2,0.93,0.29,0.0,1.0,0.0,kha
0.0,0.0,145.0,55.0,129.0,43.0,0.0,119.0,0.2,0.93,0.29,1.0,2.0,-1.0,kha
0.0,0.0,145.0,55.0,126.0,43.0,0.0,119.0,0.19,0.92,0.28,2.0,1.0,-2.0,kha
0.0,0.0,145.0,56.0,132.0,43.0,0.0,117.0,0.19,0.92,0.28,3.0,1.0,-4.0,kha
0.0,0.0,145.0,55.0,132.0,43.0,0.0,117.0,0.19,0.93,0.27,5.0,1.0,-7.0,kha
0.0,0.0,143.0,55.0,129.0,43.0,0.0,117.0,0.18,0.93,0.26,7.0,1.0,-8.0,kha
0.0,0.0,142.0,55.0,129.0,43.0,0.0,114.0,0.17,0.94,0.26,8.0,0.0,-9.0,kha
0.0,0.0,142.0,55.0,126.0,43.0,0.0,111.0,0.17,0.94,0.24,10.0,-1.0,-10.0,kha
0.0,0.0,142.0,55.0,120.0,43.0,0.0,114.0,0.16,0.95,0.23,11.0,-2.0,-10.0,kha
0.0,0.0,140.0,55.0,117.0,42.0,0.0,111.0,0.15,0.96,0.21,10.0,-2.0,-10.0,kha
0.0,0.0,140.0,55.0,117.0,42.0,0.0,111.0,0.14,0.96,0.2,9.0,-1.0,-9.0,kha
0.0,0.0,140.0,55.0,117.0,42.0,0.0,111.0,0.14,0.97,0.19,6.0,-1.0,-7.0,kha
0.0,0.0,139.0,54.0,117.0,42.0,0.0,109.0,0.13,0.97,0.19,3.0,0.0,-4.0,kha
0.0,0.0,139.0,54.0,111.0,42.0,0.0,111.0,0.13,0.97,0.19,0.0,1.0,0.0,kha
0.0,0.0,139.0,55.0,111.0,43.0,0.0,109.0,0.13,0.97,0.19,-4.0,2.0,4.0,kha
0.0,0.0,139.0,55.0,117.0,42.0,0.0,109.0,0.14,0.96,0.2,-7.0,3.0,8.0,kha
0.0,0.0,140.0,55.0,120.0,42.0,0.0,111.0,0.14,0.96,0.2,-11.0,5.0,11.0,kha
0.0,0.0,140.0,55.0,114.0,42.0,0.0,111.0,0.16,0.95,0.21,-14.0,6.0,15.0,kha
0.0,0.0,140.0,56.0,123.0,42.0,0.0,111.0,0.17,0.95,0.23,-18.0,6.0,18.0,kha
0.0,0.0,141.0,55.0,126.0,43.0,0.0,111.0,0.19,0.93,0.24,-18.0,6.0,19.0,kha
0.0,0.0,141.0,56.0,123.0,43.0,0.0,111.0,0.21,0.92,0.26,-17.0,5.0,18.0,kha
0.0,0.0,142.0,56.0,126.0,43.0,0.0,114.0,0.22,0.91,0.27,-14.0,5.0,15.0,kha
0.0,0.0,142.0,56.0,126.0,43.0,0.0,111.0,0.25,0.91,0.28,-9.0,4.0,11.0,kha
0.0,0.0,142.0,56.0,129.0,42.0,0.0,114.0,0.26,0.91,0.28,-6.0,4.0,6.0,kha
0.0,0.0,141.0,56.0,132.0,42.0,0.0,114.0,0.26,0.91,0.29,-3.0,3.0,3.0,kha
0.0,0.0,142.0,55.0,123.0,43.0,0.0,114.0,0.27,0.91,0.29,0.0,2.0,-1.0,kha
0.0,0.0,142.0,55.0,123.0,42.0,0.0,114.0,0.26,0.91,0.29,3.0,2.0,-4.0,kha
0.0,0.0,141.0,55.0,126.0,43.0,0.0,111.0,0.26,0.92,0.28,4.0,1.0,-7.0,kha
0.0,0.0,142.0,54.0,129.0,43.0,0.0,114.0,0.26,0.92,0.27,6.0,1.0,-8.0,kha
0.0,0.0,142.0,54.0,126.0,45.0,0.0,111.0,0.25,0.93,0.27,6.0,1.0,-9.0,kha
0.0,0.0,142.0,54.0,129.0,43.0,0.0,111.0,0.24,0.94,0.26,6.0,1.0,-8.0,kha
0.0,0.0,141.0,54.0,129.0,45.0,0.0,111.0,0.23,0.94,0.25,5.0,1.0,-7.0,kha
0.0,0.0,141.0,54.0,129.0,45.0,0.0,111.0,0.23,0.95,0.25,4.0,1.0,-5.0,kha
0.0,0.0,142.0,55.0,129.0,45.0,0.0,114.0,0.22,0.95,0.25,2.0,1.0,-2.0,kha
0.0,0.0,142.0,55.0,126.0,43.0,0.0,117.0,0.22,0.95,0.25,1.0,1.0,0.0,kha
0.0,0.0,141.0,57.0,129.0,43.0,0.0,114.0,0.22,0.94,0.24,0.0,2.0,2.0,kha
0.0,0.0,141.0,58.0,126.0,45.0,0.0,119.0,0.23,0.94,0.25,-2.0,2.0,3.0,kha
0.0,0.0,140.0,58.0,126.0,45.0,0.0,117.0,0.23,0.93,0.25,-2.0,2.0,3.0,kha
0.0,0.0,140.0,58.0,123.0,45.0,0.0,117.0,0.23,0.93,0.25,-1.0,2.0,2.0,kha
0.0,0.0,140.0,59.0,123.0,43.0,0.0,117.0,0.23,0.93,0.25,0.0,1.0,1.0,kha
0.0,0.0,140.0,60.0,123.0,43.0,0.0,117.0,0.23,0.93,0.24,0.0,1.0,0.0,kha
0.0,0.0,140.0,60.0,123.0,45.0,0.0,117.0,0.23,0.93,0.24,0.0,2.0,0.0,kha
0.0,0.0,143.0,61.0,120.0,43.0,0.0,117.0,0.23,0.93,0.24,-1.0,2.0,0.0,kha
0.0,0.0,143.0,61.0,117.0,43.0,0.0,117.0,0.23,0.93,0.24,-1.0,2.0,0.0,kha
0.0,0.0,142.0,61.0,117.0,43.0,0.0,117.0,0.23,0.93,0.24,-2.0,2.0,0.0,kha
0.0,0.0,142.0,61.0,117.0,45.0,0.0,117.0,0.23,0.93,0.25,-2.0,2.0,0.0,kha
0.0,0.0,142.0,61.0,120.0,43.0,0.0,111.0,0.23,0.93,0.25,-1.0,2.0,0.0,kha
0.0,0.0,143.0,61.0,123.0,43.0,0.0,114.0,0.23,0.93,0.25,-1.0,2.0,0.0,kha
0.0,0.0,143.0,61.0,120.0,43.0,0.0,111.0,0.24,0.93,0.25,0.0,2.0,0.0,kha
0.0,0.0,143.0,60.0,123.0,43.0,0.0,111.0,0.24,0.93,0.25,-1.0,2.0,0.0,kha
0.0,0.0,143.0,60.0,120.0,45.0,0.0,111.0,0.24,0.93,0.25,0.0,2.0,0.0,kha
0.0,0.0,143.0,60.0,117.0,45.0,0.0,109.0,0.24,0.93,0.25,-1.0,2.0,0.0,kha
0.0,0.0,141.0,60.0,126.0,45.0,0.0,111.0,0.24,0.93,0.25,0.0,2.0,0.0,kha
0.0,0.0,140.0,59.0,126.0,46.0,0.0,109.0,0.24,0.93,0.25,0.0,2.0,0.0,kha
0.0,0.0,141.0,58.0,123.0,46.0,0.0,109.0,0.24,0.93,0.25,0.0,2.0,0.0,kha
0.0,0.0,141.0,58.0,123.0,46.0,0.0,109.0,0.24,0.93,0.24,0.0,2.0,0.0,kha
0.0,0.0,141.0,58.0,120.0,46.0,0.0,109.0,0.24,0.93,0.24,0.0,1.0,0.0,kha
0.0,0.0,141.0,58.0,120.0,46.0,0.0,109.0,0.24,0.93,0.24,0.0,1.0,0.0,kha
0.0,0.0,141.0,58.0,123.0,46.0,0.0,111.0,0.24,0.93,0.24,-1.0,2.0,0.0,kha
0.0,0.0,141.0,58.0,123.0,48.0,0.0,109.0,0.24,0.93,0.24,0.0,2.0,0.0,kha
0.0,0.0,141.0,58.0,126.0,46.0,0.0,109.0,0.24,0.93,0.24,-2.0,2.0,0.0,kha
0.0,0.0,141.0,59.0,129.0,45.0,0.0,111.0,0.24,0.93,0.24,0.0,2.0,0.0,kha
0.0,0.0,141.0,59.0,126.0,46.0,0.0,111.0,0.24,0.93,0.25,0.0,2.0,0.0,kha
0.0,0.0,141.0,59.0,129.0,46.0,0.0,111.0,0.24,0.93,0.24,0.0,2.0,0.0,kha
0.0,0.0,141.0,60.0,129.0,46.0,0.0,111.0,0.24,0.93,0.24,0.0,2.0,0.0,kha
0.0,0.0,141.0,61.0,132.0,45.0,0.0,114.0,0.24,0.93,0.24,0.0,2.0,0.0,kha
0.0,0.0,140.0,62.0,135.0,45.0,0.0,117.0,0.24,0.93,0.25,0.0,2.0,0.0,kha
0.0,0.0,141.0,63.0,135.0,45.0,0.0,119.0,0.24,0.93,0.24,0.0,2.0,0.0,kha
0.0,0.0,141.0,64.0,132.0,45.0,0.0,119.0,0.24,0.93,0.24,0.0,2.0,0.0,kha
0.0,0.0,141.0,65.0,129.0,45.0,0.0,122.0,0.24,0.93,0.24,0.0,2.0,0.0,kha
0.0,0.0,141.0,67.0,132.0,46.0,0.0,122.0,0.24,0.93,0.24,0.0,2.0,0.0,kha
0.0,0.0,141.0,68.0,132.0,46.0,0.0,124.0,0.24,0.93,0.24,0.0,2.0,-1.0,kha
0.0,0.0,140.0,71.0,129.0,46.0,0.0,124.0,0.24,0.93,0.24,1.0,2.0,0.0,kha
0.0,0.0,140.0,74.0,129.0,48.0,0.0,127.0,0.24,0.93,0.23,0.0,2.0,0.0,kha
0.0,0.0,140.0,76.0,126.0,48.0,0.0,127.0,0.24,0.93,0.23,1.0,2.0,0.0,kha
0.0,0.0,139.0,79.0,126.0,49.0,0.0,127.0,0.24,0.93,0.23,0.0,2.0,0.0,kha
0.0,0.0,138.0,81.0,123.0,51.0,0.0,124.0,0.24,0.93,0.23,0.0,2.0,0.0,kha
0.0,0.0,137.0,81.0,123.0,51.0,0.0,124.0,0.24,0.93,0.23,0.0,2.0,0.0,kha
0.0,0.0,136.0,83.0,123.0,52.0,0.0,122.0,0.24,0.93,0.23,0.0,2.0,0.0,kha
0.0,0.0,136.0,85.0,123.0,52.0,0.0,119.0,0.24,0.93,0.23,-1.0,2.0,0.0,kha
0.0,0.0,135.0,85.0,123.0,52.0,0.0,119.0,0.24,0.93,0.22,-1.0,2.0,0.0,kha
0.0,0.0,134.0,85.0,123.0,52.0,0.0,119.0,0.24,0.94,0.22,-2.0,1.0,0.0,kha
0.0,0.0,134.0,85.0,123.0,52.0,0.0,117.0,0.24,0.94,0.22,-3.0,2.0,0.0,kha
0.0,0.0,134.0,84.0,126.0,51.0,0.0,117.0,0.24,0.93,0.23,-3.0,2.0,0.0,kha
0.0,0.0,134.0,83.0,126.0,51.0,0.0,117.0,0.24,0.93,0.23,-3.0,2.0,0.0,kha
0.0,0.0,131.0,81.0,126.0,51.0,0.0,111.0,0.24,0.93,0.23,-3.0,3.0,1.0,kha
0.0,0.0,132.0,80.0,126.0,51.0,0.0,111.0,0.24,0.93,0.23,-3.0,3.0,1.0,kha
0.0,0.0,132.0,80.0,126.0,49.0,0.0,109.0,0.24,0.93,0.23,-2.0,3.0,1.0,kha
0.0,0.0,132.0,80.0,123.0,51.0,0.0,111.0,0.24,0.93,0.23,-2.0,3.0,0.0,kha
0.0,0.0,132.0,79.0,123.0,51.0,0.0,111.0,0.24,0.93,0.23,-1.0,3.0,0.0,kha
0.0,0.0,133.0,79.0,120.0,51.0,0.0,109.0,0.24,0.93,0.23,-1.0,3.0,0.0,kha
0.0,0.0,134.0,79.0,123.0,51.0,0.0,109.0,0.24,0.93,0.23,-1.0,3.0,0.0,kha
0.0,0.0,134.0,78.0,123.0,51.0,0.0,111.0,0.24,0.93,0.23,0.0,2.0,0.0,kha
0.0,0.0,135.0,77.0,120.0,52.0,0.0,111.0,0.24,0.93,0.23,-2.0,2.0,-2.0,kha
0.0,0.0,134.0,77.0,120.0,52.0,0.0,109.0,0.24,0.93,0.23,-1.0,2.0,-2.0,kha
0.0,0.0,137.0,76.0,120.0,52.0,0.0,114.0,0.24,0.94,0.23,-1.0,1.0,-3.0,kha
0.0,0.0,136.0,76.0,123.0,52.0,0.0,114.0,0.24,0.94,0.23,0.0,1.0,-3.0,kha
0.0,0.0,136.0,77.0,105.0,51.0,0.0,114.0,0.23,0.94,0.23,0.0,1.0,-3.0,kha
0.0,0.0,136.0,77.0,108.0,51.0,0.0,111.0,0.23,0.94,0.23,0.0,2.0,-2.0,kha
0.0,0.0,135.0,77.0,111.0,49.0,0.0,111.0,0.23,0.94,0.23,-1.0,1.0,-1.0,kha
0.0,0.0,136.0,76.0,114.0,49.0,0.0,111.0,0.23,0.93,0.23,-1.0,2.0,0.0,kha
0.0,0.0,135.0,76.0,108.0,49.0,0.0,114.0,0.23,0.94,0.23,-1.0,2.0,0.0,kha
0.0,0.0,135.0,76.0,108.0,49.0,0.0,114.0,0.23,0.93,0.23,-1.0,2.0,0.0,kha
0.0,0.0,134.0,76.0,108.0,49.0,0.0,111.0,0.23,0.93,0.23,0.0,2.0,0.0,kha
0.0,0.0,134.0,76.0,111.0,49.0,0.0,111.0,0.24,0.93,0.23,0.0,2.0,0.0,kha
0.0,0.0,133.0,76.0,108.0,51.0,0.0,114.0,0.23,0.93,0.23,0.0,2.0,0.0,kha
0.0,0.0,133.0,76.0,111.0,51.0,0.0,111.0,0.23,0.93,0.23,0.0,2.0,0.0,kha
0.0,0.0,133.0,76.0,126.0,51.0,0.0,114.0,0.24,0.92,0.23,0.0,2.0,0.0,kha
0.0,0.0,133.0,76.0,126.0,52.0,0.0,114.0,0.24,0.93,0.23,0.0,2.0,0.0,kha
0.0,0.0,134.0,76.0,126.0,52.0,0.0,114.0,0.24,0.93,0.23,0.0,2.0,0.0,kha
0.0,0.0,133.0,76.0,123.0,52.0,0.0,114.0,0.24,0.93,0.23,-2.0,2.0,0.0,kha
0.0,0.0,133.0,76.0,120.0,52.0,0.0,114.0,0.24,0.93,0.23,-2.0,1.0,0.0,kha
0.0,0.0,133.0,75.0,120.0,51.0,0.0,111.0,0.24,0.93,0.23,-2.0,1.0,0.0,kha
0.0,0.0,133.0,75.0,123.0,49.0,0.0,111.0,0.24,0.93,0.23,-2.0,1.0,0.0,kha
0.0,0.0,133.0,76.0,123.0,49.0,0.0,114.0,0.24,0.93,0.23,0.0,1.0,0.0,kha
0.0,0.0,134.0,76.0,120.0,48.0,0.0,114.0,0.24,0.93,0.23,0.0,1.0,0.0,kha
0.0,0.0,134.0,76.0,117.0,48.0,0.0,114.0,0.24,0.94,0.23,0.0,1.0,0.0,kha
0.0,0.0,135.0,75.0,117.0,42.0,0.0,117.0,0.24,0.94,0.23,0.0,1.0,0.0,kha
0.0,0.0,135.0,75.0,120.0,42.0,0.0,119.0,0.24,0.93,0.22,-1.0,1.0,0.0,kha
0.0,0.0,136.0,75.0,120.0,42.0,0.0,117.0,0.24,0.93,0.22,0.0,0.0,0.0,kha
0.0,0.0,136.0,74.0,117.0,42.0,0.0,117.0,0.23,0.94,0.23,-2.0,1.0,0.0,kha
0.0,0.0,136.0,74.0,120.0,40.0,0.0,117.0,0.23,0.94,0.22,-2.0,1.0,0.0,kha
0.0,0.0,136.0,74.0,120.0,40.0,0.0,117.0,0.24,0.94,0.22,-2.0,1.0,0.0,kha
0.0,0.0,135.0,74.0,123.0,40.0,0.0,117.0,0.24,0.94,0.23,-3.0,1.0,1.0,kha
0.0,0.0,135.0,73.0,120.0,40.0,0.0,117.0,0.24,0.93,0.23,-4.0,1.0,1.0,kha
0.0,0.0,136.0,71.0,123.0,40.0,0.0,114.0,0.24,0.93,0.23,-3.0,1.0,1.0,kha
0.0,0.0,137.0,70.0,123.0,39.0,0.0,117.0,0.24,0.93,0.24,-4.0,1.0,1.0,kha
0.0,0.0,137.0,69.0,120.0,43.0,0.0,114.0,0.24,0.93,0.24,-3.0,1.0,1.0,kha
0.0,0.0,138.0,69.0,120.0,43.0,0.0,111.0,0.24,0.93,0.24,-3.0,1.0,0.0,kha
0.0,0.0,138.0,68.0,120.0,43.0,0.0,109.0,0.25,0.93,0.24,-3.0,2.0,1.0,kha
0.0,0.0,138.0,68.0,123.0,42.0,0.0,111.0,0.25,0.92,0.24,-2.0,1.0,1.0,kha
0.0,0.0,138.0,68.0,123.0,43.0,0.0,109.0,0.25,0.92,0.24,-2.0,2.0,1.0,kha
0.0,0.0,138.0,68.0,123.0,43.0,0.0,109.0,0.26,0.92,0.24,-2.0,2.0,1.0,kha
0.0,0.0,139.0,67.0,123.0,43.0,0.0,111.0,0.26,0.92,0.24,-2.0,2.0,0.0,kha
0.0,0.0,139.0,66.0,123.0,43.0,0.0,111.0,0.25,0.92,0.24,-2.0,2.0,0.0,kha
0.0,0.0,140.0,66.0,123.0,42.0,0.0,111.0,0.26,0.93,0.24,-2.0,2.0,0.0,kha
0.0,0.0,140.0,66.0,126.0,42.0,0.0,111.0,0.26,0.92,0.24,-2.0,2.0,0.0,kha
0.0,0.0,138.0,65.0,126.0,43.0,0.0,111.0,0.25,0.93,0.24,-3.0,3.0,0.0,kha
0.0,0.0,138.0,64.0,126.0,43.0,0.0,111.0,0.25,0.93,0.25,-3.0,3.0,0.0,kha
0.0,0.0,139.0,65.0,126.0,43.0,0.0,117.0,0.25,0.93,0.25,-4.0,3.0,0.0,kha
0.0,0.0,139.0,65.0,126.0,43.0,0.0,117.0,0.26,0.93,0.25,-3.0,2.0,1.0,kha
0.0,0.0,139.0,63.0,126.0,43.0,0.0,114.0,0.26,0.93,0.25,-4.0,2.0,0.0,kha
0.0,0.0,140.0,63.0,126.0,43.0,0.0,114.0,0.26,0.93,0.26,-3.0,2.0,0.0,kha
0.0,0.0,140.0,62.0,123.0,43.0,0.0,114.0,0.26,0.92,0.26,-4.0,2.0,0.0,kha
0.0,0.0,140.0,62.0,126.0,43.0,0.0,114.0,0.26,0.92,0.26,-3.0,2.0,0.0,kha
0.0,0.0,140.0,62.0,126.0,43.0,0.0,114.0,0.26,0.92,0.26,-4.0,2.0,0.0,kha
0.0,0.0,140.0,63.0,123.0,43.0,0.0,111.0,0.26,0.92,0.26,-4.0,2.0,1.0,kha
0.0,0.0,140.0,64.0,120.0,45.0,0.0,111.0,0.26,0.92,0.26,-5.0,2.0,2.0,kha
0.0,0.0,139.0,64.0,117.0,43.0,0.0,111.0,0.26,0.92,0.26,-6.0,2.0,3.0,kha
0.0,0.0,139.0,62.0,117.0,45.0,0.0,109.0,0.27,0.92,0.27,-7.0,2.0,4.0,kha
0.0,0.0,139.0,62.0,120.0,46.0,0.0,106.0,0.27,0.91,0.28,-7.0,2.0,5.0,kha
0.0,0.0,138.0,61.0,123.0,45.0,0.0,111.0,0.28,0.9,0.28,-6.0,1.0,5.0,kha
0.0,0.0,138.0,61.0,120.0,45.0,0.0,114.0,0.28,0.9,0.29,-7.0,2.0,3.0,kha
0.0,0.0,137.0,62.0,120.0,45.0,0.0,111.0,0.29,0.89,0.29,-8.0,4.0,0.0,kha
0.0,0.0,137.0,62.0,120.0,45.0,0.0,111.0,0.29,0.89,0.3,-9.0,7.0,-1.0,kha
0.0,0.0,137.0,61.0,117.0,46.0,0.0,111.0,0.28,0.88,0.31,-7.0,8.0,-2.0,kha
0.0,0.0,136.0,60.0,123.0,45.0,0.0,114.0,0.28,0.89,0.32,-7.0,9.0,-4.0,kha
0.0,0.0,136.0,60.0,129.0,45.0,0.0,114.0,0.27,0.88,0.33,-4.0,9.0,-7.0,kha
0.0,0.0,136.0,59.0,129.0,45.0,0.0,114.0,0.27,0.89,0.33,-2.0,11.0,-11.0,kha
0.0,0.0,137.0,59.0,126.0,43.0,0.0,114.0,0.25,0.89,0.33,0.0,11.0,-15.0,kha
0.0,0.0,137.0,58.0,123.0,42.0,0.0,117.0,0.23,0.89,0.32,0.0,13.0,-17.0,kha
0.0,0.0,138.0,58.0,123.0,42.0,0.0,114.0,0.21,0.9,0.32,2.0,14.0,-16.0,kha
0.0,0.0,138.0,58.0,120.0,42.0,0.0,114.0,0.19,0.91,0.32,3.0,14.0,-14.0,kha
0.0,0.0,139.0,57.0,117.0,43.0,0.0,117.0,0.17,0.93,0.32,4.0,10.0,-9.0,kha
0.0,0.0,139.0,58.0,117.0,43.0,0.0,117.0,0.16,0.93,0.32,2.0,5.0,-5.0,kha
0.0,0.0,139.0,58.0,120.0,43.0,0.0,114.0,0.17,0.93,0.31,-3.0,3.0,0.0,kha
0.0,0.0,139.0,59.0,120.0,45.0,0.0,114.0,0.17,0.92,0.32,-4.0,1.0,2.0,kha
0.0,0.0,139.0,58.0,120.0,43.0,0.0,117.0,0.17,0.92,0.32,-6.0,0.0,5.0,kha
0.0,0.0,140.0,58.0,117.0,45.0,0.0,117.0,0.17,0.91,0.32,-4.0,-3.0,9.0,kha
0.0,0.0,141.0,58.0,120.0,45.0,0.0,114.0,0.19,0.91,0.32,1.0,-4.0,12.0,kha
0.0,0.0,141.0,58.0,123.0,46.0,0.0,109.0,0.21,0.91,0.32,5.0,-6.0,12.0,kha
0.0,0.0,141.0,58.0,120.0,46.0,0.0,109.0,0.22,0.91,0.31,7.0,-5.0,10.0,kha
0.0,0.0,141.0,58.0,120.0,46.0,0.0,104.0,0.24,0.91,0.29,9.0,-4.0,8.0,kha
0.0,0.0,140.0,58.0,129.0,45.0,0.0,106.0,0.25,0.9,0.28,11.0,-1.0,6.0,kha
0.0,0.0,140.0,57.0,129.0,43.0,0.0,104.0,0.25,0.9,0.27,15.0,4.0,1.0,kha
0.0,0.0,140.0,57.0,126.0,43.0,0.0,104.0,0.25,0.91,0.25,20.0,6.0,-4.0,kha
0.0,0.0,140.0,57.0,123.0,45.0,0.0,109.0,0.25,0.93,0.23,19.0,8.0,-7.0,kha
0.0,0.0,140.0,58.0,123.0,45.0,0.0,106.0,0.24,0.94,0.21,18.0,10.0,-9.0,kha
0.0,0.0,140.0,58.0,126.0,43.0,0.0,109.0,0.22,0.94,0.21,15.0,14.0,-12.0,kha
0.0,0.0,138.0,57.0,123.0,43.0,0.0,114.0,0.21,0.96,0.19,8.0,15.0,-15.0,kha
0.0,0.0,138.0,57.0,126.0,42.0,0.0,117.0,0.19,0.96,0.19,1.0,19.0,-16.0,kha
0.0,0.0,138.0,57.0,126.0,36.0,0.0,117.0,0.18,0.96,0.19,-5.0,18.0,-15.0,kha
0.0,0.0,137.0,57.0,129.0,36.0,0.0,117.0,0.15,0.95,0.2,-10.0,19.0,-15.0,kha
0.0,0.0,137.0,58.0,123.0,37.0,0.0,117.0,0.13,0.96,0.21,-17.0,17.0,-14.0,kha
0.0,0.0,137.0,58.0,123.0,37.0,0.0,117.0,0.12,0.96,0.24,-23.0,16.0,-12.0,kha
0.0,0.0,137.0,58.0,126.0,37.0,0.0,119.0,0.11,0.95,0.26,-28.0,13.0,-9.0,kha
0.0,0.0,138.0,57.0,129.0,36.0,0.0,114.0,0.09,0.94,0.29,-29.0,11.0,-7.0,kha
0.0,0.0,138.0,57.0,129.0,34.0,0.0,114.0,0.08,0.92,0.32,-32.0,10.0,-5.0,kha
0.0,0.0,138.0,57.0,126.0,36.0,0.0,109.0,0.08,0.91,0.34,-33.0,5.0,-1.0,kha
0.0,0.0,139.0,57.0,129.0,34.0,0.0,109.0,0.08,0.9,0.38,-33.0,3.0,2.0,kha
0.0,0.0,140.0,58.0,123.0,36.0,0.0,109.0,0.09,0.89,0.4,-30.0,-3.0,5.0,kha
0.0,0.0,140.0,58.0,117.0,42.0,0.0,109.0,0.1,0.87,0.43,-28.0,-7.0,8.0,kha
0.0,0.0,140.0,58.0,123.0,40.0,0.0,106.0,0.12,0.87,0.45,-23.0,-14.0,10.0,kha
0.0,0.0,140.0,58.0,123.0,40.0,0.0,106.0,0.14,0.85,0.46,-16.0,-16.0,13.0,kha
0.0,0.0,140.0,58.0,120.0,42.0,0.0,111.0,0.16,0.85,0.47,-10.0,-20.0,13.0,kha
0.0,0.0,141.0,60.0,117.0,43.0,0.0,111.0,0.18,0.84,0.47,-2.0,-20.0,13.0,kha
0.0,0.0,140.0,60.0,117.0,45.0,0.0,111.0,0.21,0.84,0.45,4.0,-23.0,12.0,kha
0.0,0.0,140.0,60.0,117.0,45.0,0.0,111.0,0.22,0.84,0.44,12.0,-24.0,10.0,kha
0.0,0.0,140.0,61.0,117.0,46.0,0.0,111.0,0.25,0.85,0.42,18.0,-23.0,9.0,kha
0.0,0.0,140.0,60.0,114.0,43.0,0.0,117.0,0.26,0.85,0.4,23.0,-21.0,6.0,kha
0.0,0.0,139.0,60.0,117.0,43.0,0.0,117.0,0.28,0.86,0.37,25.0,-19.0,4.0,kha
0.0,0.0,139.0,59.0,117.0,43.0,0.0,122.0,0.29,0.87,0.34,28.0,-14.0,0.0,kha
0.0,0.0,139.0,59.0,117.0,43.0,0.0,119.0,0.29,0.89,0.3,29.0,-9.0,-4.0,kha
0.0,0.0,140.0,59.0,120.0,43.0,0.0,122.0,0.29,0.91,0.27,30.0,-6.0,-7.0,kha
0.0,0.0,140.0,60.0,120.0,42.0,0.0,117.0,0.28,0.91,0.24,28.0,-1.0,-10.0,kha
0.0,0.0,137.0,58.0,120.0,40.0,0.0,117.0,0.28,0.93,0.22,25.0,3.0,-12.0,kha
0.0,0.0,137.0,58.0,123.0,39.0,0.0,119.0,0.27,0.94,0.2,22.0,7.0,-15.0,kha
0.0,0.0,137.0,58.0,120.0,40.0,0.0,119.0,0.26,0.95,0.18,17.0,11.0,-16.0,kha
0.0,0.0,137.0,58.0,120.0,43.0,0.0,119.0,0.24,0.95,0.17,14.0,15.0,-17.0,kha
0.0,0.0,137.0,58.0,117.0,46.0,0.0,117.0,0.22,0.96,0.16,11.0,15.0,-17.0,kha
0.0,0.0,137.0,58.0,120.0,46.0,0.0,117.0,0.19,0.96,0.16,8.0,18.0,-18.0,kha
0.0,0.0,137.0,58.0,123.0,46.0,0.0,114.0,0.18,0.97,0.15,4.0,18.0,-17.0,kha
0.0,0.0,138.0,58.0,120.0,45.0,0.0,117.0,0.16,0.97,0.15,-2.0,24.0,-18.0,kha
0.0,0.0,137.0,58.0,120.0,46.0,0.0,117.0,0.14,0.96,0.16,-7.0,25.0,-18.0,kha
0.0,0.0,133.0,58.0,117.0,46.0,0.0,114.0,0.11,0.97,0.17,-12.0,26.0,-16.0,kha
0.0,0.0,134.0,58.0,117.0,46.0,0.0,114.0,0.1,0.96,0.18,-17.0,23.0,-14.0,kha
0.0,0.0,135.0,58.0,117.0,49.0,0.0,111.0,0.08,0.96,0.21,-21.0,21.0,-12.0,kha
0.0,0.0,134.0,58.0,117.0,48.0,0.0,109.0,0.06,0.95,0.23,-26.0,19.0,-10.0,kha
0.0,0.0,133.0,58.0,117.0,45.0,0.0,109.0,0.05,0.94,0.25,-30.0,14.0,-7.0,kha
0.0,0.0,133.0,58.0,120.0,45.0,0.0,109.0,0.05,0.92,0.28,-34.0,15.0,-4.0,kha
0.0,0.0,134.0,58.0,123.0,43.0,0.0,109.0,0.05,0.91,0.3,-37.0,10.0,-2.0,kha
0.0,0.0,133.0,58.0,120.0,45.0,0.0,109.0,0.03,0.9,0.34,-38.0,9.0,1.0,kha
0.0,0.0,132.0,58.0,114.0,43.0,0.0,106.0,0.05,0.89,0.37,-36.0,0.0,6.0,kha
0.0,0.0,134.0,59.0,111.0,43.0,0.0,106.0,0.05,0.87,0.41,-33.0,-6.0,9.0,kha
0.0,0.0,137.0,58.0,114.0,42.0,0.0,109.0,0.07,0.86,0.43,-30.0,-9.0,11.0,kha
0.0,0.0,138.0,60.0,117.0,42.0,0.0,106.0,0.08,0.85,0.46,-25.0,-14.0,13.0,kha
0.0,0.0,138.0,60.0,114.0,45.0,0.0,106.0,0.12,0.83,0.47,-20.0,-17.0,15.0,kha
0.0,0.0,138.0,60.0,114.0,45.0,0.0,106.0,0.14,0.83,0.48,-13.0,-22.0,15.0,kha
0.0,0.0,140.0,61.0,111.0,45.0,0.0,106.0,0.16,0.82,0.48,-5.0,-22.0,14.0,kha
0.0,0.0,138.0,61.0,111.0,43.0,0.0,104.0,0.19,0.82,0.48,3.0,-26.0,14.0,kha
0.0,0.0,138.0,61.0,117.0,43.0,0.0,106.0,0.22,0.84,0.46,11.0,-28.0,13.0,kha
0.0,0.0,138.0,61.0,117.0,45.0,0.0,104.0,0.25,0.84,0.44,17.0,-30.0,12.0,kha
0.0,0.0,137.0,61.0,129.0,46.0,0.0,104.0,0.27,0.85,0.41,21.0,-29.0,10.0,kha
0.0,0.0,136.0,61.0,126.0,46.0,0.0,104.0,0.29,0.85,0.38,25.0,-26.0,8.0,kha
0.0,0.0,136.0,62.0,123.0,43.0,0.0,104.0,0.31,0.86,0.35,27.0,-26.0,5.0,kha
0.0,0.0,136.0,61.0,120.0,45.0,0.0,101.0,0.32,0.88,0.32,31.0,-19.0,0.0,kha
0.0,0.0,136.0,61.0,120.0,40.0,0.0,101.0,0.32,0.89,0.28,31.0,-16.0,-3.0,kha
0.0,0.0,136.0,60.0,120.0,40.0,0.0,104.0,0.33,0.91,0.25,31.0,-9.0,-7.0,kha
0.0,0.0,136.0,58.0,126.0,39.0,0.0,104.0,0.33,0.92,0.21,27.0,-4.0,-11.0,kha
0.0,0.0,137.0,58.0,126.0,39.0,0.0,104.0,0.3,0.94,0.19,23.0,3.0,-14.0,kha
0.0,0.0,137.0,58.0,117.0,39.0,0.0,104.0,0.29,0.94,0.17,17.0,10.0,-17.0,kha
0.0,0.0,136.0,57.0,117.0,39.0,0.0,104.0,0.27,0.95,0.16,14.0,15.0,-19.0,kha
0.0,0.0,137.0,57.0,120.0,42.0,0.0,104.0,0.25,0.96,0.15,12.0,19.0,-21.0,kha
0.0,0.0,156.0,102.0,396.0,162.0,0.0,343.0,0.19,0.94,0.29,0.0,3.0,-2.0,kha
0.0,0.0,153.0,98.0,372.0,149.0,0.0,320.0,0.19,0.93,0.29,0.0,2.0,-2.0,kha
0.0,0.0,151.0,93.0,336.0,135.0,0.0,295.0,0.19,0.93,0.29,0.0,2.0,-2.0,kha
0.0,0.0,148.0,90.0,306.0,120.0,0.0,267.0,0.19,0.93,0.28,0.0,2.0,-2.0,kha
0.0,0.0,146.0,85.0,276.0,108.0,0.0,236.0,0.19,0.92,0.28,0.0,1.0,-3.0,kha
0.0,0.0,143.0,81.0,240.0,95.0,0.0,203.0,0.19,0.92,0.29,0.0,1.0,-4.0,kha
0.0,0.0,140.0,77.0,207.0,82.0,0.0,180.0,0.18,0.92,0.29,1.0,1.0,-5.0,kha
0.0,0.0,138.0,72.0,174.0,69.0,0.0,155.0,0.17,0.92,0.29,1.0,1.0,-6.0,kha
0.0,0.0,136.0,68.0,144.0,58.0,0.0,132.0,0.16,0.93,0.29,3.0,0.0,-6.0,kha
0.0,0.0,134.0,64.0,117.0,46.0,0.0,109.0,0.15,0.94,0.28,4.0,0.0,-6.0,kha
0.0,0.0,134.0,65.0,117.0,46.0,0.0,109.0,0.15,0.94,0.27,5.0,1.0,-4.0,kha
0.0,0.0,134.0,65.0,117.0,46.0,0.0,109.0,0.15,0.94,0.26,5.0,0.0,-3.0,kha
0.0,0.0,135.0,65.0,114.0,48.0,0.0,117.0,0.15,0.94,0.25,5.0,1.0,-4.0,kha
0.0,0.0,134.0,65.0,117.0,48.0,0.0,117.0,0.14,0.94,0.25,5.0,2.0,-3.0,kha
0.0,0.0,134.0,65.0,114.0,49.0,0.0,117.0,0.14,0.95,0.24,5.0,2.0,-2.0,kha
0.0,0.0,134.0,64.0,117.0,48.0,0.0,119.0,0.15,0.96,0.23,6.0,2.0,0.0,kha
0.0,0.0,135.0,64.0,120.0,48.0,0.0,119.0,0.16,0.96,0.22,6.0,2.0,2.0,kha
0.0,0.0,134.0,64.0,120.0,46.0,0.0,119.0,0.18,0.96,0.21,7.0,2.0,3.0,kha
0.0,0.0,134.0,64.0,126.0,46.0,0.0,119.0,0.19,0.95,0.19,5.0,1.0,3.0,kha
0.0,0.0,133.0,64.0,123.0,46.0,0.0,119.0,0.19,0.95,0.18,4.0,2.0,3.0,kha
0.0,0.0,132.0,62.0,123.0,46.0,0.0,122.0,0.19,0.95,0.18,3.0,2.0,2.0,kha
0.0,0.0,132.0,61.0,123.0,46.0,0.0,122.0,0.19,0.95,0.18,3.0,2.0,2.0,kha
0.0,0.0,131.0,60.0,129.0,45.0,0.0,114.0,0.19,0.95,0.18,2.0,2.0,2.0,kha
0.0,0.0,131.0,60.0,132.0,43.0,0.0,114.0,0.2,0.95,0.18,1.0,1.0,1.0,kha
0.0,0.0,131.0,60.0,132.0,43.0,0.0,114.0,0.2,0.95,0.18,0.0,1.0,1.0,kha
0.0,0.0,131.0,60.0,132.0,43.0,0.0,114.0,0.2,0.95,0.18,0.0,1.0,1.0,kha
0.0,0.0,131.0,60.0,126.0,43.0,0.0,114.0,0.2,0.95,0.18,-1.0,0.0,0.0,kha
0.0,0.0,131.0,60.0,126.0,43.0,0.0,117.0,0.19,0.95,0.18,-2.0,1.0,0.0,kha
0.0,0.0,132.0,60.0,120.0,43.0,0.0,117.0,0.19,0.95,0.18,-1.0,1.0,0.0,kha
0.0,0.0,131.0,59.0,120.0,43.0,0.0,117.0,0.2,0.95,0.18,-1.0,0.0,1.0,kha
0.0,0.0,133.0,59.0,120.0,43.0,0.0,114.0,0.2,0.95,0.18,0.0,0.0,1.0,kha
0.0,0.0,133.0,59.0,114.0,45.0,0.0,114.0,0.2,0.95,0.18,-1.0,0.0,0.0,kha
0.0,0.0,133.0,59.0,114.0,45.0,0.0,114.0,0.2,0.95,0.18,0.0,0.0,0.0,kha
0.0,0.0,133.0,59.0,102.0,46.0,0.0,111.0,0.2,0.95,0.18,0.0,0.0,0.0,kha
0.0,0.0,133.0,58.0,105.0,45.0,0.0,111.0,0.2,0.95,0.17,0.0,1.0,0.0,kha
0.0,0.0,133.0,60.0,102.0,45.0,0.0,109.0,0.19,0.95,0.18,0.0,1.0,0.0,kha
0.0,0.0,132.0,59.0,105.0,43.0,0.0,106.0,0.19,0.95,0.18,0.0,1.0,0.0,kha
0.0,0.0,132.0,59.0,102.0,43.0,0.0,104.0,0.2,0.95,0.17,0.0,0.0,0.0,kha
0.0,0.0,132.0,60.0,105.0,43.0,0.0,101.0,0.2,0.95,0.17,-1.0,1.0,0.0,kha
0.0,0.0,132.0,59.0,108.0,42.0,0.0,101.0,0.2,0.96,0.17,-1.0,2.0,0.0,kha
0.0,0.0,132.0,59.0,108.0,42.0,0.0,101.0,0.2,0.96,0.17,0.0,2.0,0.0,kha
0.0,0.0,132.0,60.0,114.0,40.0,0.0,106.0,0.2,0.96,0.17,0.0,1.0,0.0,kha
0.0,0.0,131.0,60.0,117.0,40.0,0.0,106.0,0.2,0.96,0.16,0.0,2.0,-1.0,kha
0.0,0.0,131.0,60.0,123.0,40.0,0.0,109.0,0.2,0.96,0.16,-1.0,2.0,-1.0,kha
0.0,0.0,131.0,61.0,120.0,40.0,0.0,109.0,0.2,0.96,0.16,-2.0,2.0,0.0,kha
0.0,0.0,132.0,60.0,120.0,40.0,0.0,109.0,0.21,0.96,0.16,-2.0,2.0,1.0,kha
0.0,0.0,133.0,60.0,123.0,42.0,0.0,111.0,0.2,0.96,0.16,-2.0,1.0,1.0,kha
0.0,0.0,133.0,60.0,123.0,42.0,0.0,111.0,0.2,0.97,0.16,-3.0,1.0,2.0,kha
0.0,0.0,133.0,60.0,123.0,42.0,0.0,111.0,0.21,0.96,0.16,-8.0,0.0,2.0,kha
0.0,0.0,133.0,60.0,126.0,42.0,0.0,114.0,0.21,0.97,0.16,-11.0,0.0,3.0,kha
0.0,0.0,133.0,60.0,120.0,42.0,0.0,111.0,0.21,0.97,0.18,-17.0,0.0,4.0,kha
0.0,0.0,133.0,60.0,117.0,45.0,0.0,106.0,0.22,0.97,0.19,-20.0,0.0,7.0,kha
0.0,0.0,134.0,61.0,114.0,45.0,0.0,106.0,0.23,0.96,0.21,-26.0,-2.0,9.0,kha
0.0,0.0,134.0,60.0,117.0,45.0,0.0,106.0,0.25,0.94,0.23,-28.0,-2.0,9.0,kha
0.0,0.0,134.0,60.0,114.0,46.0,0.0,104.0,0.26,0.94,0.25,-35.0,-2.0,8.0,kha
0.0,0.0,134.0,61.0,111.0,46.0,0.0,104.0,0.26,0.93,0.28,-36.0,0.0,7.0,kha
0.0,0.0,135.0,62.0,111.0,48.0,0.0,104.0,0.27,0.91,0.31,-41.0,1.0,6.0,kha
0.0,0.0,135.0,63.0,111.0,48.0,0.0,104.0,0.27,0.9,0.35,-40.0,7.0,5.0,kha
0.0,0.0,136.0,64.0,111.0,49.0,0.0,104.0,0.27,0.88,0.38,-39.0,15.0,3.0,kha
0.0,0.0,136.0,65.0,105.0,49.0,0.0,101.0,0.28,0.86,0.41,-37.0,15.0,0.0,kha
0.0,0.0,137.0,65.0,108.0,49.0,0.0,104.0,0.26,0.84,0.43,-35.0,22.0,-4.0,kha
0.0,0.0,137.0,67.0,108.0,49.0,0.0,104.0,0.25,0.83,0.47,-35.0,23.0,-9.0,kha
0.0,0.0,137.0,67.0,108.0,42.0,0.0,104.0,0.22,0.81,0.5,-28.0,30.0,-11.0,kha
0.0,0.0,138.0,67.0,108.0,42.0,0.0,104.0,0.2,0.79,0.52,-21.0,30.0,-13.0,kha
0.0,0.0,138.0,68.0,108.0,42.0,0.0,104.0,0.17,0.78,0.54,-7.0,33.0,-13.0,kha
0.0,0.0,138.0,68.0,108.0,42.0,0.0,104.0,0.15,0.79,0.54,0.0,32.0,-14.0,kha
0.0,0.0,138.0,68.0,105.0,42.0,0.0,104.0,0.12,0.79,0.54,9.0,32.0,-14.0,kha
0.0,0.0,137.0,67.0,105.0,40.0,0.0,106.0,0.1,0.8,0.53,14.0,26.0,-14.0,kha
0.0,0.0,137.0,67.0,111.0,40.0,0.0,104.0,0.08,0.81,0.52,22.0,20.0,-13.0,kha
0.0,0.0,137.0,65.0,114.0,40.0,0.0,94.0,0.05,0.82,0.51,28.0,18.0,-11.0,kha
0.0,0.0,136.0,65.0,114.0,40.0,0.0,94.0,0.05,0.85,0.49,35.0,12.0,-9.0,kha
0.0,0.0,136.0,64.0,114.0,39.0,0.0,96.0,0.03,0.86,0.45,41.0,10.0,-6.0,kha
0.0,0.0,135.0,63.0,117.0,45.0,0.0,96.0,0.03,0.9,0.41,41.0,3.0,-3.0,kha
0.0,0.0,135.0,64.0,114.0,45.0,0.0,96.0,0.03,0.92,0.38,37.0,2.0,0.0,kha
0.0,0.0,134.0,63.0,114.0,45.0,0.0,96.0,0.03,0.93,0.35,33.0,-3.0,3.0,kha
0.0,0.0,134.0,62.0,117.0,43.0,0.0,96.0,0.04,0.93,0.33,28.0,-5.0,4.0,kha
0.0,0.0,133.0,62.0,114.0,43.0,0.0,96.0,0.04,0.95,0.3,24.0,-7.0,7.0,kha
0.0,0.0,131.0,61.0,120.0,42.0,0.0,96.0,0.05,0.94,0.28,19.0,-8.0,11.0,kha
0.0,0.0,131.0,61.0,114.0,42.0,0.0,96.0,0.07,0.96,0.26,15.0,-10.0,13.0,kha
0.0,0.0,131.0,61.0,108.0,42.0,0.0,106.0,0.09,0.95,0.25,10.0,-9.0,14.0,kha
0.0,0.0,132.0,61.0,114.0,40.0,0.0,106.0,0.11,0.95,0.23,4.0,-11.0,15.0,kha
0.0,0.0,131.0,61.0,111.0,42.0,0.0,104.0,0.12,0.94,0.23,-1.0,-10.0,16.0,kha
0.0,0.0,131.0,61.0,111.0,42.0,0.0,104.0,0.14,0.93,0.23,-5.0,-9.0,16.0,kha
0.0,0.0,130.0,61.0,111.0,42.0,0.0,106.0,0.15,0.92,0.23,-5.0,-7.0,14.0,kha
0.0,0.0,133.0,60.0,111.0,45.0,0.0,106.0,0.17,0.93,0.23,-5.0,-6.0,12.0,kha
0.0,0.0,134.0,62.0,111.0,45.0,0.0,109.0,0.18,0.93,0.23,-3.0,-5.0,11.0,kha
0.0,0.0,133.0,61.0,114.0,45.0,0.0,106.0,0.2,0.93,0.22,-3.0,-2.0,8.0,kha
0.0,0.0,135.0,61.0,111.0,45.0,0.0,106.0,0.2,0.93,0.23,-2.0,-1.0,4.0,kha
0.0,0.0,135.0,61.0,111.0,45.0,0.0,109.0,0.2,0.93,0.23,-3.0,0.0,2.0,kha
0.0,0.0,135.0,61.0,108.0,45.0,0.0,106.0,0.2,0.93,0.23,-2.0,1.0,1.0,kha
0.0,0.0,135.0,62.0,102.0,46.0,0.0,106.0,0.2,0.93,0.23,0.0,2.0,-1.0,kha
0.0,0.0,134.0,61.0,102.0,46.0,0.0,109.0,0.2,0.94,0.23,4.0,2.0,-5.0,kha
0.0,0.0,134.0,61.0,105.0,45.0,0.0,109.0,0.19,0.94,0.22,8.0,2.0,-8.0,kha
0.0,0.0,135.0,61.0,105.0,45.0,0.0,106.0,0.19,0.95,0.21,10.0,1.0,-11.0,kha
0.0,0.0,134.0,60.0,108.0,42.0,0.0,109.0,0.17,0.94,0.2,10.0,1.0,-14.0,kha
0.0,0.0,134.0,58.0,102.0,43.0,0.0,106.0,0.16,0.95,0.19,11.0,1.0,-16.0,kha
0.0,0.0,134.0,60.0,111.0,45.0,0.0,106.0,0.14,0.94,0.19,11.0,0.0,-17.0,kha
0.0,0.0,134.0,60.0,111.0,45.0,0.0,109.0,0.13,0.95,0.18,12.0,-1.0,-18.0,kha
0.0,0.0,134.0,60.0,108.0,45.0,0.0,106.0,0.11,0.95,0.16,12.0,0.0,-19.0,kha
0.0,0.0,134.0,61.0,111.0,45.0,0.0,106.0,0.1,0.96,0.15,13.0,0.0,-20.0,kha
0.0,0.0,133.0,60.0,114.0,43.0,0.0,106.0,0.08,0.96,0.14,13.0,0.0,-20.0,kha
0.0,0.0,134.0,60.0,114.0,43.0,0.0,104.0,0.06,0.97,0.12,13.0,-1.0,-18.0,kha
0.0,0.0,134.0,61.0,108.0,45.0,0.0,104.0,0.04,0.97,0.11,11.0,0.0,-16.0,kha
0.0,0.0,134.0,61.0,108.0,45.0,0.0,106.0,0.03,0.98,0.11,8.0,0.0,-13.0,kha
0.0,0.0,133.0,60.0,108.0,45.0,0.0,104.0,0.03,0.98,0.1,6.0,0.0,-9.0,kha
0.0,0.0,133.0,61.0,111.0,45.0,0.0,104.0,0.02,0.99,0.09,2.0,0.0,-5.0,kha
0.0,0.0,134.0,60.0,105.0,43.0,0.0,104.0,0.02,0.99,0.09,0.0,0.0,0.0,kha
0.0,0.0,134.0,60.0,105.0,45.0,0.0,101.0,0.02,0.98,0.09,-4.0,1.0,5.0,kha
0.0,0.0,133.0,60.0,105.0,43.0,0.0,104.0,0.03,0.98,0.1,-5.0,0.0,9.0,kha
0.0,0.0,134.0,60.0,105.0,43.0,0.0,104.0,0.04,0.98,0.09,-7.0,0.0,12.0,kha
0.0,0.0,134.0,60.0,105.0,43.0,0.0,104.0,0.05,0.98,0.1,-8.0,0.0,14.0,kha
0.0,0.0,133.0,60.0,108.0,43.0,0.0,106.0,0.07,0.98,0.11,-10.0,1.0,16.0,kha
0.0,0.0,133.0,60.0,111.0,42.0,0.0,104.0,0.09,0.98,0.12,-10.0,0.0,18.0,kha
0.0,0.0,134.0,60.0,111.0,40.0,0.0,109.0,0.1,0.96,0.13,-11.0,1.0,18.0,kha
0.0,0.0,133.0,60.0,114.0,40.0,0.0,109.0,0.11,0.96,0.14,-12.0,1.0,18.0,kha
0.0,0.0,133.0,60.0,117.0,40.0,0.0,109.0,0.13,0.96,0.15,-11.0,1.0,17.0,kha
0.0,0.0,131.0,60.0,102.0,42.0,0.0,106.0,0.15,0.95,0.16,-9.0,1.0,15.0,kha
0.0,0.0,132.0,60.0,99.0,42.0,0.0,106.0,0.16,0.95,0.17,-8.0,2.0,13.0,kha
0.0,0.0,132.0,60.0,108.0,40.0,0.0,109.0,0.17,0.95,0.17,-9.0,3.0,12.0,kha
0.0,0.0,134.0,60.0,105.0,42.0,0.0,106.0,0.18,0.95,0.18,-9.0,2.0,12.0,kha
0.0,0.0,134.0,60.0,108.0,40.0,0.0,111.0,0.19,0.94,0.19,-9.0,2.0,13.0,kha
0.0,0.0,135.0,60.0,105.0,42.0,0.0,109.0,0.21,0.94,0.19,-9.0,2.0,12.0,kha
0.0,0.0,135.0,61.0,102.0,43.0,0.0,109.0,0.22,0.94,0.2,-9.0,3.0,12.0,kha
0.0,0.0,135.0,61.0,102.0,43.0,0.0,106.0,0.24,0.94,0.21,-9.0,2.0,13.0,kha
0.0,0.0,136.0,62.0,96.0,43.0,0.0,106.0,0.24,0.93,0.21,-9.0,2.0,12.0,kha
0.0,0.0,136.0,61.0,96.0,43.0,0.0,106.0,0.25,0.93,0.22,-10.0,3.0,13.0,kha
0.0,0.0,136.0,62.0,105.0,42.0,0.0,106.0,0.27,0.92,0.22,-11.0,2.0,14.0,kha
0.0,0.0,136.0,62.0,108.0,42.0,0.0,109.0,0.29,0.92,0.23,-12.0,1.0,14.0,kha
0.0,0.0,136.0,62.0,105.0,43.0,0.0,109.0,0.29,0.91,0.25,-13.0,0.0,14.0,kha
0.0,0.0,135.0,63.0,102.0,43.0,0.0,109.0,0.3,0.9,0.26,-14.0,0.0,15.0,kha
0.0,0.0,135.0,63.0,102.0,43.0,0.0,106.0,0.32,0.9,0.26,-14.0,0.0,15.0,kha
0.0,0.0,134.0,63.0,102.0,43.0,0.0,109.0,0.33,0.89,0.27,-15.0,2.0,15.0,kha
0.0,0.0,134.0,62.0,102.0,43.0,0.0,106.0,0.35,0.88,0.28,-15.0,1.0,15.0,kha
0.0,0.0,134.0,62.0,105.0,43.0,0.0,109.0,0.36,0.87,0.3,-15.0,3.0,15.0,kha
0.0,0.0,133.0,62.0,105.0,43.0,0.0,109.0,0.38,0.86,0.31,-15.0,3.0,15.0,kha
0.0,0.0,133.0,62.0,105.0,43.0,0.0,109.0,0.4,0.86,0.32,-15.0,4.0,14.0,kha
0.0,0.0,133.0,61.0,105.0,43.0,0.0,109.0,0.41,0.85,0.34,-14.0,4.0,13.0,kha
0.0,0.0,134.0,62.0,93.0,45.0,0.0,106.0,0.42,0.84,0.35,-12.0,4.0,13.0,kha
0.0,0.0,133.0,62.0,93.0,43.0,0.0,104.0,0.43,0.83,0.35,-12.0,5.0,13.0,kha
0.0,0.0,133.0,62.0,99.0,42.0,0.0,104.0,0.44,0.83,0.36,-10.0,4.0,12.0,kha
0.0,0.0,133.0,62.0,99.0,42.0,0.0,104.0,0.45,0.82,0.37,-10.0,4.0,11.0,kha
0.0,0.0,133.0,62.0,99.0,43.0,0.0,104.0,0.46,0.81,0.38,-8.0,2.0,10.0,kha
0.0,0.0,134.0,62.0,99.0,43.0,0.0,104.0,0.46,0.8,0.39,-8.0,2.0,9.0,kha
0.0,0.0,134.0,63.0,96.0,45.0,0.0,104.0,0.47,0.8,0.39,-8.0,1.0,9.0,kha
0.0,0.0,134.0,62.0,102.0,45.0,0.0,104.0,0.47,0.79,0.4,-8.0,1.0,9.0,kha
0.0,0.0,134.0,64.0,102.0,40.0,0.0,106.0,0.48,0.78,0.4,-7.0,0.0,9.0,kha
0.0,0.0,134.0,64.0,105.0,40.0,0.0,106.0,0.48,0.78,0.41,-8.0,0.0,8.0,kha
0.0,0.0,134.0,64.0,117.0,40.0,0.0,109.0,0.49,0.77,0.41,-7.0,0.0,8.0,kha
0.0,0.0,134.0,64.0,120.0,39.0,0.0,109.0,0.5,0.76,0.41,-8.0,1.0,8.0,kha
0.0,0.0,134.0,63.0,120.0,39.0,0.0,109.0,0.51,0.75,0.42,-8.0,1.0,8.0,kha
0.0,0.0,134.0,62.0,117.0,40.0,0.0,109.0,0.51,0.75,0.42,-8.0,2.0,7.0,kha
0.0,0.0,133.0,63.0,117.0,42.0,0.0,106.0,0.52,0.75,0.42,-7.0,2.0,6.0,kha
0.0,0.0,133.0,63.0,117.0,40.0,0.0,106.0,0.53,0.74,0.43,-7.0,3.0,6.0,kha
0.0,0.0,133.0,64.0,120.0,40.0,0.0,106.0,0.53,0.73,0.43,-7.0,3.0,6.0,kha
0.0,0.0,133.0,64.0,114.0,40.0,0.0,106.0,0.53,0.73,0.44,-6.0,3.0,5.0,kha
0.0,0.0,133.0,63.0,114.0,45.0,0.0,104.0,0.54,0.72,0.44,-6.0,2.0,5.0,kha
0.0,0.0,132.0,62.0,114.0,45.0,0.0,104.0,0.54,0.72,0.45,-5.0,3.0,3.0,kha
0.0,0.0,133.0,63.0,108.0,46.0,0.0,104.0,0.54,0.71,0.45,-2.0,2.0,0.0,kha
0.0,0.0,131.0,63.0,111.0,45.0,0.0,104.0,0.54,0.71,0.44,1.0,2.0,-3.0,kha
0.0,0.0,132.0,63.0,105.0,46.0,0.0,104.0,0.55,0.72,0.44,4.0,2.0,-6.0,kha
0.0,0.0,132.0,64.0,120.0,45.0,0.0,106.0,0.54,0.72,0.44,6.0,2.0,-9.0,kha
0.0,0.0,133.0,64.0,120.0,43.0,0.0,106.0,0.53,0.73,0.43,9.0,2.0,-12.0,kha
0.0,0.0,133.0,64.0,117.0,45.0,0.0,106.0,0.52,0.74,0.42,12.0,3.0,-15.0,kha
0.0,0.0,132.0,63.0,117.0,45.0,0.0,106.0,0.51,0.75,0.41,14.0,2.0,-18.0,kha
0.0,0.0,132.0,62.0,117.0,45.0,0.0,106.0,0.49,0.76,0.4,17.0,2.0,-22.0,kha
0.0,0.0,132.0,62.0,114.0,45.0,0.0,106.0,0.48,0.78,0.38,19.0,3.0,-25.0,kha
0.0,0.0,132.0,63.0,108.0,45.0,0.0,104.0,0.46,0.8,0.36,20.0,3.0,-27.0,kha
0.0,0.0,132.0,63.0,114.0,43.0,0.0,104.0,0.44,0.82,0.35,19.0,3.0,-27.0,kha
0.0,0.0,132.0,62.0,114.0,43.0,0.0,104.0,0.42,0.84,0.34,18.0,3.0,-27.0,kha
0.0,0.0,132.0,62.0,114.0,42.0,0.0,104.0,0.39,0.85,0.32,17.0,3.0,-27.0,kha
0.0,0.0,132.0,61.0,102.0,42.0,0.0,104.0,0.37,0.86,0.31,16.0,1.0,-26.0,kha
0.0,0.0,132.0,61.0,105.0,42.0,0.0,104.0,0.35,0.88,0.29,15.0,2.0,-26.0,kha
0.0,0.0,132.0,61.0,108.0,40.0,0.0,104.0,0.33,0.89,0.28,15.0,0.0,-25.0,kha
0.0,0.0,133.0,59.0,111.0,40.0,0.0,104.0,0.3,0.9,0.26,13.0,1.0,-24.0,kha
0.0,0.0,133.0,59.0,111.0,43.0,0.0,101.0,0.29,0.91,0.25,12.0,0.0,-21.0,kha
0.0,0.0,133.0,60.0,114.0,42.0,0.0,104.0,0.27,0.92,0.24,11.0,0.0,-20.0,kha
0.0,0.0,133.0,60.0,117.0,42.0,0.0,104.0,0.24,0.92,0.23,10.0,0.0,-19.0,kha
0.0,0.0,133.0,59.0,117.0,42.0,0.0,106.0,0.23,0.93,0.22,10.0,1.0,-17.0,kha
0.0,0.0,133.0,59.0,117.0,43.0,0.0,104.0,0.22,0.93,0.21,9.0,0.0,-16.0,kha
0.0,0.0,133.0,59.0,114.0,43.0,0.0,109.0,0.2,0.94,0.2,9.0,0.0,-16.0,kha
0.0,0.0,133.0,58.0,114.0,45.0,0.0,106.0,0.19,0.94,0.19,8.0,0.0,-15.0,kha
0.0,0.0,132.0,59.0,111.0,45.0,0.0,106.0,0.18,0.95,0.19,9.0,0.0,-14.0,kha
0.0,0.0,134.0,62.0,114.0,45.0,0.0,109.0,0.17,0.95,0.18,9.0,0.0,-14.0,kha
0.0,0.0,134.0,63.0,111.0,45.0,0.0,109.0,0.15,0.95,0.17,9.0,0.0,-14.0,kha
0.0,0.0,134.0,63.0,111.0,40.0,0.0,111.0,0.14,0.96,0.16,9.0,-1.0,-14.0,kha
0.0,0.0,134.0,62.0,108.0,40.0,0.0,111.0,0.13,0.96,0.15,9.0,0.0,-14.0,kha
0.0,0.0,134.0,62.0,105.0,40.0,0.0,109.0,0.12,0.97,0.14,9.0,-2.0,-13.0,kha
0.0,0.0,136.0,63.0,102.0,42.0,0.0,109.0,0.11,0.97,0.13,8.0,-2.0,-13.0,kha
0.0,0.0,136.0,64.0,102.0,40.0,0.0,109.0,0.1,0.97,0.12,8.0,-2.0,-12.0,kha
0.0,0.0,136.0,63.0,96.0,40.0,0.0,106.0,0.09,0.97,0.12,8.0,-3.0,-11.0,kha
0.0,0.0,136.0,64.0,93.0,40.0,0.0,106.0,0.09,0.98,0.11,6.0,-2.0,-10.0,kha
0.0,0.0,136.0,65.0,90.0,40.0,0.0,106.0,0.08,0.98,0.1,5.0,0.0,-8.0,kha
0.0,0.0,135.0,61.0,90.0,40.0,0.0,106.0,0.08,0.99,0.09,3.0,3.0,-6.0,kha
0.0,0.0,135.0,61.0,90.0,40.0,0.0,104.0,0.08,0.98,0.09,2.0,8.0,-6.0,kha
0.0,0.0,135.0,61.0,90.0,43.0,0.0,101.0,0.07,0.98,0.09,-1.0,15.0,-5.0,kha
0.0,0.0,135.0,61.0,87.0,45.0,0.0,101.0,0.07,0.98,0.09,-2.0,17.0,-4.0,kha
0.0,0.0,135.0,60.0,93.0,45.0,0.0,101.0,0.05,0.98,0.09,-4.0,24.0,-5.0,kha
0.0,0.0,132.0,61.0,93.0,45.0,0.0,101.0,0.05,0.98,0.09,-4.0,25.0,-4.0,kha
0.0,0.0,132.0,61.0,93.0,43.0,0.0,104.0,0.03,0.98,0.1,-6.0,31.0,-4.0,kha
0.0,0.0,132.0,61.0,108.0,43.0,0.0,104.0,0.04,0.98,0.09,-8.0,35.0,-3.0,kha
0.0,0.0,133.0,61.0,102.0,43.0,0.0,104.0,0.02,0.97,0.1,-9.0,40.0,-3.0,kha
0.0,0.0,133.0,61.0,105.0,42.0,0.0,106.0,0.02,0.97,0.11,-11.0,45.0,-3.0,kha
0.0,0.0,133.0,61.0,105.0,42.0,0.0,101.0,-0.0,0.96,0.13,-11.0,45.0,-3.0,kha
0.0,0.0,133.0,61.0,111.0,42.0,0.0,104.0,-0.0,0.96,0.13,-10.0,43.0,-2.0,kha
0.0,0.0,132.0,62.0,111.0,42.0,0.0,104.0,-0.01,0.96,0.15,-8.0,37.0,-1.0,kha
0.0,0.0,131.0,62.0,108.0,40.0,0.0,99.0,-0.02,0.96,0.15,-8.0,37.0,-1.0,kha
0.0,0.0,131.0,64.0,111.0,40.0,0.0,96.0,-0.01,0.96,0.15,-8.0,32.0,0.0,kha
0.0,0.0,131.0,62.0,108.0,40.0,0.0,96.0,-0.02,0.96,0.16,-8.0,33.0,0.0,kha
0.0,0.0,130.0,63.0,105.0,42.0,0.0,96.0,-0.01,0.96,0.16,-7.0,28.0,0.0,kha
0.0,0.0,130.0,64.0,99.0,43.0,0.0,101.0,-0.03,0.96,0.18,-6.0,27.0,0.0,kha
0.0,0.0,130.0,63.0,105.0,43.0,0.0,99.0,-0.02,0.96,0.17,-5.0,24.0,1.0,kha
0.0,0.0,130.0,63.0,105.0,43.0,0.0,99.0,-0.03,0.96,0.18,-5.0,21.0,1.0,kha
0.0,0.0,130.0,63.0,96.0,43.0,0.0,101.0,-0.02,0.96,0.16,-5.0,19.0,2.0,kha
0.0,0.0,130.0,61.0,93.0,43.0,0.0,104.0,-0.03,0.96,0.17,-4.0,20.0,2.0,kha
0.0,0.0,130.0,60.0,93.0,43.0,0.0,104.0,-0.02,0.96,0.17,-5.0,21.0,3.0,kha
0.0,0.0,131.0,60.0,99.0,43.0,0.0,111.0,-0.02,0.96,0.17,-4.0,22.0,3.0,kha
0.0,0.0,132.0,62.0,96.0,43.0,0.0,114.0,-0.02,0.96,0.17,-4.0,21.0,4.0,kha
0.0,0.0,131.0,62.0,96.0,43.0,0.0,114.0,-0.02,0.96,0.17,-5.0,23.0,5.0,kha
0.0,0.0,132.0,61.0,102.0,42.0,0.0,117.0,-0.02,0.96,0.18,-4.0,23.0,4.0,kha
0.0,0.0,131.0,60.0,99.0,42.0,0.0,111.0,-0.02,0.95,0.17,-4.0,22.0,3.0,kha
0.0,0.0,132.0,60.0,102.0,40.0,0.0,114.0,-0.03,0.96,0.17,-4.0,20.0,3.0,kha
0.0,0.0,131.0,60.0,102.0,40.0,0.0,111.0,-0.03,0.95,0.18,-3.0,12.0,2.0,kha
0.0,0.0,131.0,60.0,105.0,40.0,0.0,111.0,-0.03,0.95,0.19,-3.0,8.0,1.0,kha
0.0,0.0,132.0,61.0,105.0,40.0,0.0,111.0,-0.03,0.96,0.18,-3.0,-1.0,1.0,kha
0.0,0.0,131.0,61.0,111.0,40.0,0.0,111.0,-0.03,0.95,0.19,-4.0,-8.0,0.0,kha
0.0,0.0,131.0,61.0,111.0,40.0,0.0,114.0,-0.02,0.95,0.19,-5.0,-15.0,0.0,kha
0.0,0.0,131.0,58.0,111.0,40.0,0.0,111.0,-0.01,0.95,0.19,-5.0,-23.0,-2.0,kha
0.0,0.0,131.0,59.0,111.0,40.0,0.0,111.0,-0.02,0.95,0.2,-6.0,-31.0,-3.0,kha
0.0,0.0,132.0,59.0,114.0,40.0,0.0,111.0,-0.01,0.95,0.2,-7.0,-39.0,-3.0,kha
0.0,0.0,132.0,60.0,114.0,40.0,0.0,114.0,0.01,0.95,0.21,-8.0,-44.0,-3.0,kha
0.0,0.0,132.0,60.0,111.0,42.0,0.0,114.0,0.01,0.95,0.22,-6.0,-48.0,-2.0,kha
0.0,0.0,134.0,60.0,114.0,42.0,0.0,114.0,0.03,0.95,0.21,-6.0,-47.0,-2.0,kha
0.0,0.0,135.0,61.0,120.0,40.0,0.0,114.0,0.03,0.95,0.22,-7.0,-46.0,-1.0,kha
0.0,0.0,134.0,61.0,114.0,42.0,0.0,117.0,0.05,0.95,0.22,-7.0,-44.0,0.0,kha
0.0,0.0,135.0,62.0,111.0,42.0,0.0,119.0,0.06,0.95,0.23,-6.0,-43.0,0.0,kha
0.0,0.0,135.0,62.0,108.0,42.0,0.0,117.0,0.06,0.95,0.23,-5.0,-39.0,0.0,kha
0.0,0.0,136.0,62.0,108.0,42.0,0.0,119.0,0.07,0.95,0.23,-6.0,-36.0,1.0,kha
0.0,0.0,136.0,61.0,111.0,42.0,0.0,119.0,0.09,0.95,0.23,-5.0,-33.0,2.0,kha
0.0,0.0,136.0,61.0,105.0,42.0,0.0,114.0,0.1,0.95,0.24,-4.0,-28.0,3.0,kha
0.0,0.0,137.0,60.0,102.0,40.0,0.0,111.0,0.11,0.95,0.23,-3.0,-28.0,3.0,kha
0.0,0.0,137.0,60.0,102.0,42.0,0.0,111.0,0.12,0.95,0.23,-6.0,-26.0,2.0,kha
0.0,0.0,135.0,60.0,96.0,43.0,0.0,111.0,0.12,0.95,0.23,-5.0,-25.0,2.0,kha
0.0,0.0,135.0,59.0,99.0,43.0,0.0,111.0,0.13,0.95,0.23,-6.0,-25.0,1.0,kha
0.0,0.0,135.0,58.0,99.0,43.0,0.0,111.0,0.14,0.96,0.23,-5.0,-25.0,1.0,kha
0.0,0.0,135.0,58.0,102.0,42.0,0.0,106.0,0.14,0.95,0.23,-6.0,-24.0,1.0,kha
0.0,0.0,135.0,59.0,105.0,42.0,0.0,106.0,0.15,0.95,0.23,-5.0,-25.0,1.0,kha
0.0,0.0,135.0,58.0,108.0,40.0,0.0,106.0,0.15,0.95,0.23,-5.0,-24.0,1.0,kha
0.0,0.0,135.0,58.0,102.0,42.0,0.0,109.0,0.17,0.96,0.22,-6.0,-25.0,1.0,kha
0.0,0.0,135.0,58.0,105.0,43.0,0.0,111.0,0.17,0.95,0.23,-7.0,-23.0,0.0,kha
0.0,0.0,135.0,57.0,114.0,43.0,0.0,111.0,0.17,0.95,0.23,-8.0,-22.0,0.0,kha
0.0,0.0,135.0,57.0,117.0,42.0,0.0,111.0,0.18,0.95,0.23,-8.0,-21.0,1.0,kha
0.0,0.0,135.0,57.0,120.0,40.0,0.0,111.0,0.19,0.94,0.23,-9.0,-20.0,0.0,kha
0.0,0.0,135.0,58.0,117.0,42.0,0.0,111.0,0.2,0.94,0.24,-8.0,-17.0,0.0,kha
0.0,0.0,135.0,58.0,114.0,43.0,0.0,109.0,0.21,0.94,0.24,-10.0,-14.0,0.0,kha
0.0,0.0,135.0,58.0,114.0,43.0,0.0,109.0,0.22,0.94,0.24,-10.0,-12.0,1.0,kha
0.0,0.0,135.0,57.0,114.0,45.0,0.0,109.0,0.23,0.94,0.25,-10.0,-9.0,1.0,kha
0.0,0.0,135.0,59.0,114.0,45.0,0.0,111.0,0.23,0.93,0.25,-9.0,-4.0,2.0,kha
0.0,0.0,134.0,59.0,129.0,45.0,0.0,106.0,0.23,0.93,0.26,-7.0,2.0,3.0,kha
0.0,0.0,134.0,59.0,129.0,43.0,0.0,104.0,0.25,0.93,0.26,-5.0,9.0,3.0,kha
0.0,0.0,134.0,60.0,123.0,46.0,0.0,101.0,0.24,0.93,0.27,-1.0,14.0,2.0,kha
0.0,0.0,133.0,61.0,120.0,46.0,0.0,99.0,0.24,0.93,0.26,0.0,25.0,1.0,kha
0.0,0.0,135.0,61.0,114.0,46.0,0.0,99.0,0.24,0.94,0.26,3.0,25.0,2.0,kha
0.0,0.0,135.0,60.0,126.0,46.0,0.0,99.0,0.23,0.94,0.26,4.0,36.0,1.0,kha
0.0,0.0,137.0,60.0,132.0,45.0,0.0,101.0,0.23,0.94,0.25,5.0,35.0,1.0,kha
0.0,0.0,137.0,60.0,129.0,46.0,0.0,99.0,0.2,0.94,0.26,6.0,42.0,1.0,kha
0.0,0.0,136.0,60.0,129.0,45.0,0.0,96.0,0.2,0.95,0.25,6.0,39.0,1.0,kha
0.0,0.0,136.0,59.0,126.0,45.0,0.0,96.0,0.18,0.94,0.26,6.0,41.0,0.0,kha
0.0,0.0,136.0,59.0,90.0,45.0,0.0,99.0,0.17,0.94,0.26,5.0,37.0,-1.0,kha
0.0,0.0,136.0,59.0,90.0,45.0,0.0,99.0,0.15,0.94,0.26,5.0,31.0,0.0,kha
0.0,0.0,136.0,59.0,93.0,45.0,0.0,101.0,0.16,0.94,0.25,1.0,28.0,0.0,kha
0.0,0.0,136.0,58.0,99.0,43.0,0.0,106.0,0.15,0.94,0.26,3.0,17.0,1.0,kha
0.0,0.0,135.0,58.0,102.0,45.0,0.0,106.0,0.14,0.94,0.25,0.0,19.0,1.0,kha
0.0,0.0,135.0,58.0,93.0,43.0,0.0,106.0,0.15,0.94,0.26,1.0,9.0,3.0,kha
0.0,0.0,133.0,58.0,90.0,43.0,0.0,101.0,0.14,0.94,0.26,0.0,11.0,2.0,kha
0.0,0.0,134.0,58.0,87.0,43.0,0.0,106.0,0.16,0.94,0.25,0.0,6.0,2.0,kha
0.0,0.0,135.0,58.0,90.0,42.0,0.0,106.0,0.14,0.94,0.26,-1.0,8.0,2.0,kha
0.0,0.0,135.0,58.0,90.0,40.0,0.0,109.0,0.17,0.95,0.25,-1.0,5.0,3.0,kha
0.0,0.0,135.0,57.0,114.0,40.0,0.0,106.0,0.16,0.95,0.26,-1.0,4.0,2.0,kha
0.0,0.0,135.0,57.0,111.0,40.0,0.0,106.0,0.17,0.95,0.25,-2.0,5.0,2.0,kha
0.0,0.0,134.0,56.0,114.0,39.0,0.0,104.0,0.17,0.95,0.25,-1.0,3.0,3.0,kha
0.0,0.0,135.0,55.0,120.0,39.0,0.0,101.0,0.18,0.95,0.26,-2.0,4.0,1.0,kha
0.0,0.0,134.0,55.0,117.0,39.0,0.0,101.0,0.18,0.95,0.26,0.0,3.0,1.0,kha
0.0,0.0,134.0,54.0,117.0,39.0,0.0,101.0,0.18,0.95,0.26,-2.0,4.0,1.0,kha
0.0,0.0,134.0,54.0,114.0,39.0,0.0,101.0,0.19,0.96,0.26,0.0,1.0,2.0,kha
0.0,0.0,134.0,54.0,123.0,42.0,0.0,101.0,0.19,0.94,0.25,0.0,0.0,1.0,kha
0.0,0.0,133.0,54.0,123.0,42.0,0.0,101.0,0.2,0.94,0.24,0.0,-2.0,0.0,kha
0.0,0.0,133.0,54.0,123.0,42.0,0.0,101.0,0.19,0.94,0.24,1.0,-3.0,0.0,kha
0.0,0.0,133.0,55.0,123.0,42.0,0.0,101.0,0.2,0.94,0.24,0.0,0.0,0.0,kha
0.0,0.0,133.0,55.0,120.0,43.0,0.0,104.0,0.2,0.94,0.24,0.0,-2.0,-1.0,kha
0.0,0.0,133.0,55.0,123.0,43.0,0.0,104.0,0.2,0.95,0.24,1.0,0.0,-1.0,kha
0.0,0.0,133.0,56.0,114.0,43.0,0.0,104.0,0.2,0.95,0.24,0.0,-1.0,0.0,kha
0.0,0.0,133.0,55.0,114.0,43.0,0.0,104.0,0.2,0.94,0.24,1.0,0.0,0.0,kha
0.0,0.0,133.0,55.0,111.0,43.0,0.0,106.0,0.2,0.93,0.24,1.0,-3.0,0.0,kha
0.0,0.0,133.0,55.0,114.0,45.0,0.0,106.0,0.19,0.93,0.23,1.0,-2.0,-1.0,kha
0.0,0.0,134.0,55.0,111.0,43.0,0.0,106.0,0.2,0.94,0.23,0.0,-3.0,0.0,kha
0.0,0.0,133.0,55.0,114.0,43.0,0.0,106.0,0.2,0.94,0.24,0.0,-2.0,-1.0,kha
0.0,0.0,134.0,55.0,117.0,43.0,0.0,106.0,0.2,0.95,0.24,-1.0,-2.0,-1.0,kha
0.0,0.0,134.0,54.0,117.0,43.0,0.0,104.0,0.2,0.95,0.24,0.0,-2.0,0.0,kha
0.0,0.0,134.0,54.0,117.0,43.0,0.0,104.0,0.2,0.94,0.23,0.0,-2.0,0.0,kha
0.0,0.0,134.0,54.0,117.0,49.0,0.0,104.0,0.21,0.93,0.22,0.0,-2.0,0.0,kha
0.0,0.0,134.0,54.0,114.0,49.0,0.0,104.0,0.21,0.94,0.22,-2.0,-1.0,-1.0,kha
0.0,0.0,134.0,54.0,114.0,49.0,0.0,104.0,0.21,0.94,0.23,-3.0,0.0,-2.0,kha
0.0,0.0,133.0,55.0,114.0,49.0,0.0,99.0,0.21,0.95,0.23,-3.0,1.0,-2.0,kha
0.0,0.0,133.0,55.0,117.0,48.0,0.0,99.0,0.21,0.96,0.23,-2.0,1.0,-2.0,kha
0.0,0.0,133.0,55.0,117.0,46.0,0.0,99.0,0.21,0.95,0.23,-1.0,1.0,0.0,kha
0.0,0.0,133.0,55.0,114.0,46.0,0.0,104.0,0.21,0.94,0.22,0.0,1.0,0.0,kha
0.0,0.0,132.0,56.0,111.0,46.0,0.0,104.0,0.2,0.93,0.22,0.0,1.0,-2.0,kha
0.0,0.0,133.0,56.0,111.0,46.0,0.0,109.0,0.19,0.94,0.22,-2.0,2.0,-2.0,kha
0.0,0.0,133.0,56.0,111.0,45.0,0.0,111.0,0.2,0.95,0.23,-2.0,2.0,-1.0,kha
0.0,0.0,133.0,56.0,111.0,40.0,0.0,111.0,0.2,0.96,0.24,-1.0,2.0,0.0,kha
0.0,0.0,133.0,55.0,114.0,39.0,0.0,109.0,0.19,0.95,0.24,0.0,1.0,0.0,kha
0.0,0.0,133.0,55.0,114.0,39.0,0.0,109.0,0.19,0.94,0.23,0.0,1.0,0.0,kha
0.0,0.0,133.0,55.0,117.0,39.0,0.0,111.0,0.2,0.93,0.22,0.0,1.0,0.0,kha
0.0,0.0,133.0,56.0,117.0,39.0,0.0,111.0,0.19,0.93,0.23,-1.0,1.0,-1.0,kha
0.0,0.0,133.0,55.0,111.0,39.0,0.0,111.0,0.19,0.95,0.23,-2.0,2.0,-2.0,kha
0.0,0.0,133.0,55.0,111.0,40.0,0.0,106.0,0.19,0.95,0.24,-2.0,1.0,0.0,kha
0.0,0.0,133.0,55.0,111.0,40.0,0.0,106.0,0.2,0.95,0.23,0.0,0.0,0.0,kha
0.0,0.0,132.0,55.0,111.0,40.0,0.0,104.0,0.19,0.93,0.22,0.0,0.0,0.0,kha
0.0,0.0,132.0,55.0,108.0,40.0,0.0,104.0,0.19,0.94,0.22,-1.0,0.0,0.0,kha
0.0,0.0,132.0,55.0,108.0,40.0,0.0,104.0,0.19,0.94,0.22,-2.0,0.0,0.0,kha
0.0,0.0,132.0,55.0,111.0,40.0,0.0,104.0,0.2,0.94,0.22,-2.0,0.0,0.0,kha
0.0,0.0,132.0,56.0,108.0,42.0,0.0,106.0,0.2,0.94,0.22,-1.0,0.0,0.0,kha
0.0,0.0,132.0,56.0,99.0,42.0,0.0,106.0,0.19,0.95,0.22,0.0,0.0,0.0,kha
0.0,0.0,132.0,56.0,99.0,40.0,0.0,106.0,0.2,0.95,0.22,0.0,0.0,0.0,kha
0.0,0.0,131.0,55.0,105.0,42.0,0.0,106.0,0.2,0.94,0.22,0.0,0.0,0.0,kha
0.0,0.0,131.0,55.0,102.0,40.0,0.0,106.0,0.2,0.94,0.22,-1.0,0.0,-2.0,kha
0.0,0.0,131.0,56.0,96.0,40.0,0.0,104.0,0.19,0.94,0.22,-2.0,0.0,-1.0,kha
0.0,0.0,131.0,56.0,99.0,40.0,0.0,104.0,0.21,0.95,0.22,-2.0,0.0,0.0,kha
0.0,0.0,132.0,56.0,105.0,39.0,0.0,104.0,0.21,0.94,0.22,0.0,0.0,-2.0,kha
0.0,0.0,132.0,57.0,108.0,37.0,0.0,104.0,0.2,0.95,0.22,-1.0,0.0,-3.0,kha
0.0,0.0,132.0,56.0,105.0,37.0,0.0,101.0,0.2,0.95,0.22,-2.0,1.0,-2.0,kha
0.0,0.0,132.0,55.0,105.0,37.0,0.0,101.0,0.2,0.95,0.22,-2.0,1.0,-2.0,kha
0.0,0.0,133.0,55.0,114.0,37.0,0.0,101.0,0.2,0.95,0.22,-1.0,1.0,-2.0,kha
0.0,0.0,133.0,54.0,111.0,37.0,0.0,101.0,0.19,0.95,0.22,-1.0,1.0,-2.0,kha
0.0,0.0,134.0,54.0,114.0,37.0,0.0,101.0,0.2,0.95,0.22,-1.0,1.0,0.0,kha
0.0,0.0,134.0,54.0,111.0,37.0,0.0,101.0,0.2,0.95,0.22,-1.0,1.0,0.0,kha
0.0,0.0,134.0,54.0,123.0,39.0,0.0,101.0,0.2,0.95,0.22,-1.0,1.0,-2.0,kha
0.0,0.0,134.0,54.0,117.0,40.0,0.0,104.0,0.19,0.95,0.22,-2.0,2.0,-2.0,kha
0.0,0.0,133.0,54.0,114.0,43.0,0.0,104.0,0.2,0.95,0.22,-1.0,1.0,0.0,kha
0.0,0.0,134.0,54.0,114.0,43.0,0.0,104.0,0.2,0.95,0.22,-1.0,1.0,0.0,kha
0.0,0.0,133.0,54.0,117.0,43.0,0.0,106.0,0.2,0.95,0.22,0.0,2.0,-1.0,kha
0.0,0.0,133.0,55.0,123.0,43.0,0.0,106.0,0.2,0.95,0.22,0.0,4.0,-1.0,kha
0.0,0.0,133.0,55.0,120.0,43.0,0.0,109.0,0.2,0.94,0.22,0.0,9.0,-1.0,kha
0.0,0.0,133.0,54.0,120.0,43.0,0.0,109.0,0.2,0.94,0.22,1.0,14.0,-4.0,kha
0.0,0.0,133.0,55.0,120.0,43.0,0.0,109.0,0.19,0.94,0.21,2.0,19.0,-6.0,kha
0.0,0.0,133.0,54.0,117.0,42.0,0.0,106.0,0.17,0.95,0.21,2.0,27.0,-7.0,kha
0.0,0.0,133.0,54.0,117.0,42.0,0.0,106.0,0.16,0.95,0.22,4.0,27.0,-5.0,kha
0.0,0.0,133.0,54.0,117.0,40.0,0.0,101.0,0.15,0.96,0.22,4.0,27.0,-6.0,kha
0.0,0.0,133.0,54.0,120.0,37.0,0.0,106.0,0.14,0.96,0.21,2.0,24.0,-5.0,kha
0.0,0.0,133.0,53.0,117.0,39.0,0.0,104.0,0.13,0.95,0.21,1.0,19.0,-3.0,kha
0.0,0.0,133.0,55.0,114.0,37.0,0.0,104.0,0.13,0.95,0.21,0.0,15.0,-3.0,kha
0.0,0.0,133.0,55.0,108.0,39.0,0.0,101.0,0.12,0.95,0.21,-3.0,9.0,-3.0,kha
0.0,0.0,132.0,55.0,111.0,39.0,0.0,101.0,0.11,0.95,0.21,-5.0,2.0,-2.0,kha
0.0,0.0,133.0,55.0,111.0,37.0,0.0,101.0,0.11,0.95,0.21,-8.0,-9.0,1.0,kha
0.0,0.0,133.0,55.0,108.0,39.0,0.0,101.0,0.12,0.95,0.22,-9.0,-18.0,2.0,kha
0.0,0.0,134.0,55.0,111.0,37.0,0.0,101.0,0.12,0.94,0.22,-10.0,-28.0,3.0,kha
0.0,0.0,133.0,56.0,111.0,37.0,0.0,101.0,0.14,0.94,0.22,-12.0,-32.0,2.0,kha
0.0,0.0,134.0,55.0,111.0,37.0,0.0,106.0,0.16,0.94,0.23,-11.0,-35.0,4.0,kha
0.0,0.0,134.0,55.0,111.0,39.0,0.0,101.0,0.17,0.94,0.23,-10.0,-34.0,3.0,kha
0.0,0.0,134.0,55.0,111.0,39.0,0.0,101.0,0.18,0.93,0.23,-10.0,-31.0,2.0,kha
0.0,0.0,134.0,54.0,111.0,39.0,0.0,101.0,0.19,0.93,0.23,-9.0,-28.0,2.0,kha
0.0,0.0,134.0,55.0,117.0,39.0,0.0,101.0,0.2,0.93,0.24,-9.0,-26.0,1.0,kha
0.0,0.0,133.0,54.0,117.0,39.0,0.0,101.0,0.21,0.93,0.24,-9.0,-24.0,0.0,kha
0.0,0.0,133.0,54.0,114.0,39.0,0.0,101.0,0.21,0.93,0.24,-8.0,-20.0,0.0,kha
0.0,0.0,134.0,55.0,114.0,40.0,0.0,101.0,0.22,0.93,0.24,-8.0,-14.0,0.0,kha
0.0,0.0,134.0,54.0,111.0,40.0,0.0,101.0,0.23,0.93,0.24,-7.0,-7.0,0.0,kha
0.0,0.0,134.0,55.0,108.0,40.0,0.0,101.0,0.22,0.93,0.25,-5.0,1.0,-1.0,kha
0.0,0.0,134.0,55.0,108.0,40.0,0.0,101.0,0.22,0.93,0.25,-5.0,10.0,-2.0,kha
0.0,0.0,134.0,55.0,108.0,40.0,0.0,101.0,0.22,0.93,0.26,-3.0,12.0,-2.0,kha
0.0,0.0,134.0,54.0,108.0,40.0,0.0,101.0,0.21,0.93,0.26,0.0,21.0,-4.0,kha
0.0,0.0,135.0,54.0,114.0,39.0,0.0,104.0,0.2,0.93,0.26,1.0,22.0,-4.0,kha
0.0,0.0,135.0,52.0,111.0,40.0,0.0,101.0,0.18,0.94,0.26,4.0,26.0,-3.0,kha
0.0,0.0,136.0,53.0,111.0,39.0,0.0,104.0,0.18,0.94,0.26,4.0,24.0,-3.0,kha
0.0,0.0,136.0,52.0,108.0,39.0,0.0,106.0,0.17,0.94,0.26,5.0,25.0,-3.0,kha
0.0,0.0,135.0,51.0,108.0,39.0,0.0,106.0,0.16,0.94,0.25,5.0,23.0,-3.0,kha
0.0,0.0,134.0,50.0,111.0,39.0,0.0,106.0,0.15,0.95,0.26,5.0,19.0,-2.0,kha
0.0,0.0,133.0,49.0,117.0,37.0,0.0,106.0,0.15,0.95,0.25,3.0,15.0,-2.0,kha
0.0,0.0,133.0,49.0,120.0,37.0,0.0,106.0,0.14,0.95,0.25,4.0,9.0,-2.0,kha
0.0,0.0,133.0,49.0,117.0,39.0,0.0,106.0,0.14,0.95,0.24,2.0,8.0,-2.0,kha
0.0,0.0,133.0,49.0,117.0,39.0,0.0,106.0,0.14,0.95,0.24,2.0,0.0,-1.0,kha
0.0,0.0,133.0,49.0,114.0,40.0,0.0,106.0,0.14,0.94,0.23,2.0,0.0,-3.0,kha
0.0,0.0,133.0,50.0,114.0,40.0,0.0,104.0,0.13,0.94,0.23,2.0,-4.0,-5.0,kha
0.0,0.0,133.0,49.0,114.0,40.0,0.0,104.0,0.13,0.95,0.23,4.0,-2.0,-6.0,kha
0.0,0.0,133.0,50.0,114.0,40.0,0.0,104.0,0.13,0.95,0.23,6.0,-5.0,-8.0,kha
0.0,0.0,133.0,50.0,117.0,42.0,0.0,104.0,0.13,0.95,0.22,7.0,-4.0,-9.0,kha
0.0,0.0,134.0,51.0,117.0,42.0,0.0,101.0,0.12,0.96,0.21,6.0,-4.0,-10.0,kha
0.0,0.0,135.0,51.0,114.0,42.0,0.0,101.0,0.11,0.96,0.2,6.0,-3.0,-8.0,kha
0.0,0.0,135.0,52.0,114.0,42.0,0.0,104.0,0.11,0.96,0.19,3.0,-3.0,-6.0,kha
0.0,0.0,135.0,52.0,114.0,42.0,0.0,101.0,0.1,0.96,0.19,2.0,-2.0,-4.0,kha
0.0,0.0,135.0,49.0,111.0,42.0,0.0,104.0,0.1,0.97,0.19,0.0,0.0,0.0,kha
0.0,0.0,134.0,48.0,114.0,42.0,0.0,101.0,0.1,0.97,0.19,-2.0,0.0,3.0,kha
0.0,0.0,134.0,49.0,114.0,40.0,0.0,101.0,0.12,0.97,0.19,-4.0,1.0,6.0,kha
0.0,0.0,134.0,49.0,114.0,40.0,0.0,104.0,0.12,0.96,0.19,-7.0,2.0,8.0,kha
0.0,0.0,135.0,49.0,117.0,39.0,0.0,104.0,0.13,0.96,0.2,-9.0,5.0,10.0,kha
0.0,0.0,137.0,49.0,114.0,39.0,0.0,101.0,0.14,0.95,0.21,-10.0,4.0,11.0,kha
0.0,0.0,137.0,49.0,108.0,42.0,0.0,106.0,0.15,0.95,0.22,-10.0,5.0,10.0,kha
0.0,0.0,137.0,49.0,111.0,42.0,0.0,106.0,0.17,0.95,0.23,-10.0,4.0,9.0,kha
0.0,0.0,137.0,49.0,108.0,43.0,0.0,104.0,0.17,0.94,0.24,-8.0,3.0,7.0,kha
0.0,0.0,137.0,48.0,111.0,42.0,0.0,104.0,0.19,0.94,0.24,-8.0,1.0,4.0,kha
0.0,0.0,138.0,52.0,114.0,42.0,0.0,104.0,0.19,0.93,0.25,-7.0,0.0,1.0,kha
0.0,0.0,138.0,52.0,111.0,40.0,0.0,104.0,0.19,0.93,0.25,-6.0,-3.0,-1.0,kha
0.0,0.0,138.0,52.0,105.0,40.0,0.0,104.0,0.19,0.93,0.25,-5.0,-6.0,-2.0,kha
0.0,0.0,138.0,52.0,105.0,42.0,0.0,101.0,0.19,0.94,0.25,-4.0,-9.0,0.0,kha
0.0,0.0,138.0,52.0,105.0,42.0,0.0,106.0,0.2,0.94,0.25,-5.0,-12.0,0.0,kha
0.0,0.0,134.0,51.0,108.0,42.0,0.0,106.0,0.2,0.93,0.25,-4.0,-14.0,1.0,kha
0.0,0.0,134.0,50.0,111.0,40.0,0.0,104.0,0.2,0.93,0.25,-6.0,-17.0,1.0,kha
0.0,0.0,134.0,51.0,108.0,40.0,0.0,104.0,0.2,0.93,0.25,-5.0,-18.0,1.0,kha
0.0,0.0,135.0,51.0,108.0,40.0,0.0,106.0,0.21,0.93,0.25,-6.0,-19.0,1.0,kha
0.0,0.0,135.0,51.0,108.0,40.0,0.0,106.0,0.21,0.93,0.25,-4.0,-17.0,3.0,kha
0.0,0.0,135.0,51.0,105.0,40.0,0.0,106.0,0.23,0.93,0.24,-5.0,-17.0,3.0,kha
0.0,0.0,136.0,52.0,105.0,40.0,0.0,106.0,0.23,0.93,0.25,-4.0,-13.0,3.0,kha
0.0,0.0,136.0,52.0,105.0,42.0,0.0,106.0,0.24,0.92,0.24,-4.0,-8.0,3.0,kha
0.0,0.0,136.0,52.0,108.0,42.0,0.0,109.0,0.24,0.92,0.25,-2.0,-4.0,2.0,kha
0.0,0.0,136.0,52.0,102.0,43.0,0.0,106.0,0.24,0.92,0.25,0.0,1.0,0.0,kha
0.0,0.0,137.0,52.0,105.0,42.0,0.0,109.0,0.23,0.92,0.25,2.0,6.0,-1.0,kha
0.0,0.0,137.0,54.0,105.0,42.0,0.0,109.0,0.24,0.93,0.25,4.0,12.0,0.0,kha
0.0,0.0,137.0,54.0,105.0,42.0,0.0,109.0,0.24,0.93,0.25,6.0,14.0,0.0,kha
0.0,0.0,137.0,54.0,105.0,42.0,0.0,109.0,0.24,0.93,0.24,5.0,21.0,-2.0,kha
0.0,0.0,136.0,54.0,99.0,43.0,0.0,111.0,0.23,0.94,0.25,6.0,20.0,-1.0,kha
0.0,0.0,136.0,53.0,102.0,43.0,0.0,109.0,0.22,0.94,0.24,6.0,22.0,-1.0,kha
0.0,0.0,137.0,52.0,108.0,42.0,0.0,106.0,0.21,0.94,0.24,6.0,19.0,-1.0,kha
0.0,0.0,136.0,53.0,108.0,42.0,0.0,106.0,0.2,0.94,0.24,6.0,18.0,-2.0,kha
0.0,0.0,136.0,53.0,105.0,43.0,0.0,104.0,0.2,0.94,0.24,5.0,16.0,0.0,kha
0.0,0.0,136.0,54.0,105.0,43.0,0.0,101.0,0.2,0.94,0.23,4.0,14.0,0.0,kha
0.0,0.0,136.0,52.0,102.0,43.0,0.0,101.0,0.2,0.94,0.23,2.0,11.0,-1.0,kha
0.0,0.0,135.0,51.0,102.0,43.0,0.0,101.0,0.19,0.94,0.24,1.0,9.0,0.0,kha
0.0,0.0,135.0,51.0,105.0,42.0,0.0,101.0,0.19,0.94,0.23,-1.0,7.0,0.0,kha
0.0,0.0,136.0,51.0,105.0,42.0,0.0,104.0,0.19,0.94,0.24,1.0,2.0,0.0,kha
0.0,0.0,136.0,51.0,108.0,39.0,0.0,101.0,0.19,0.94,0.23,0.0,3.0,-1.0,kha
0.0,0.0,136.0,52.0,105.0,40.0,0.0,106.0,0.19,0.94,0.23,-1.0,1.0,0.0,kha
0.0,0.0,135.0,52.0,102.0,40.0,0.0,109.0,0.2,0.94,0.23,-1.0,2.0,0.0,kha
0.0,0.0,135.0,51.0,102.0,40.0,0.0,109.0,0.19,0.94,0.23,0.0,2.0,0.0,kha
0.0,0.0,135.0,51.0,105.0,39.0,0.0,111.0,0.19,0.94,0.23,-1.0,3.0,-1.0,kha
0.0,0.0,134.0,49.0,105.0,39.0,0.0,111.0,0.19,0.94,0.23,-1.0,2.0,0.0,kha
0.0,0.0,134.0,50.0,105.0,39.0,0.0,111.0,0.19,0.94,0.23,0.0,2.0,0.0,kha
0.0,0.0,134.0,50.0,105.0,39.0,0.0,109.0,0.19,0.94,0.23,0.0,1.0,0.0,kha
0.0,0.0,134.0,50.0,105.0,39.0,0.0,109.0,0.19,0.94,0.23,-1.0,1.0,0.0,kha
0.0,0.0,134.0,49.0,102.0,39.0,0.0,109.0,0.2,0.94,0.22,-1.0,1.0,0.0,kha
0.0,0.0,133.0,49.0,105.0,39.0,0.0,109.0,0.2,0.94,0.22,-1.0,1.0,0.0,kha
0.0,0.0,132.0,49.0,105.0,37.0,0.0,106.0,0.19,0.94,0.23,0.0,1.0,-1.0,kha
0.0,0.0,132.0,49.0,105.0,37.0,0.0,106.0,0.19,0.94,0.23,0.0,2.0,-1.0,kha
0.0,0.0,132.0,49.0,96.0,37.0,0.0,106.0,0.2,0.95,0.23,0.0,1.0,0.0,kha
0.0,0.0,132.0,50.0,96.0,37.0,0.0,104.0,0.2,0.94,0.23,0.0,1.0,-1.0,kha
0.0,0.0,134.0,51.0,99.0,39.0,0.0,106.0,0.19,0.94,0.23,0.0,1.0,-2.0,kha
0.0,0.0,131.0,51.0,114.0,37.0,0.0,106.0,0.19,0.94,0.23,0.0,1.0,0.0,kha
0.0,0.0,131.0,51.0,111.0,37.0,0.0,109.0,0.2,0.95,0.23,0.0,1.0,0.0,kha
0.0,0.0,131.0,51.0,111.0,37.0,0.0,109.0,0.19,0.94,0.23,1.0,1.0,-1.0,kha
0.0,0.0,131.0,51.0,111.0,37.0,0.0,106.0,0.19,0.95,0.23,0.0,1.0,-1.0,kha
0.0,0.0,132.0,51.0,111.0,37.0,0.0,104.0,0.19,0.95,0.22,0.0,2.0,0.0,kha
0.0,0.0,130.0,51.0,108.0,39.0,0.0,101.0,0.19,0.95,0.22,0.0,1.0,0.0,kha
0.0,0.0,130.0,51.0,114.0,37.0,0.0,101.0,0.19,0.95,0.22,0.0,1.0,-1.0,kha
0.0,0.0,129.0,51.0,120.0,39.0,0.0,99.0,0.19,0.94,0.22,0.0,1.0,-2.0,kha
0.0,0.0,129.0,51.0,120.0,39.0,0.0,99.0,0.19,0.94,0.22,0.0,1.0,-2.0,kha
0.0,0.0,129.0,50.0,117.0,37.0,0.0,96.0,0.19,0.94,0.22,1.0,1.0,-4.0,kha
0.0,0.0,132.0,49.0,105.0,37.0,0.0,96.0,0.18,0.95,0.21,3.0,0.0,-7.0,kha
0.0,0.0,132.0,49.0,102.0,37.0,0.0,94.0,0.17,0.95,0.21,4.0,-1.0,-8.0,kha
0.0,0.0,132.0,49.0,105.0,37.0,0.0,94.0,0.17,0.95,0.2,5.0,-1.0,-9.0,kha
0.0,0.0,132.0,49.0,102.0,37.0,0.0,94.0,0.16,0.95,0.19,6.0,-1.0,-10.0,kha
0.0,0.0,132.0,49.0,105.0,37.0,0.0,96.0,0.14,0.96,0.18,5.0,0.0,-10.0,kha
0.0,0.0,135.0,49.0,102.0,37.0,0.0,96.0,0.14,0.96,0.17,4.0,1.0,-8.0,kha
0.0,0.0,134.0,49.0,102.0,37.0,0.0,99.0,0.14,0.97,0.17,2.0,1.0,-5.0,kha
0.0,0.0,134.0,48.0,105.0,37.0,0.0,99.0,0.13,0.97,0.17,0.0,2.0,-4.0,kha
0.0,0.0,134.0,49.0,105.0,36.0,0.0,99.0,0.13,0.97,0.17,-2.0,3.0,0.0,kha
0.0,0.0,135.0,50.0,102.0,37.0,0.0,99.0,0.14,0.96,0.17,-4.0,2.0,3.0,kha
0.0,0.0,134.0,51.0,102.0,36.0,0.0,99.0,0.15,0.96,0.17,-7.0,5.0,5.0,kha
0.0,0.0,135.0,51.0,102.0,36.0,0.0,99.0,0.15,0.96,0.18,-9.0,5.0,7.0,kha
0.0,0.0,134.0,51.0,102.0,36.0,0.0,99.0,0.16,0.96,0.18,-13.0,7.0,11.0,kha
0.0,0.0,134.0,50.0,102.0,36.0,0.0,99.0,0.18,0.95,0.2,-15.0,6.0,14.0,kha
0.0,0.0,133.0,50.0,102.0,37.0,0.0,99.0,0.19,0.94,0.22,-14.0,5.0,13.0,kha
0.0,0.0,133.0,50.0,102.0,37.0,0.0,96.0,0.2,0.93,0.23,-13.0,4.0,12.0,kha
0.0,0.0,133.0,51.0,105.0,36.0,0.0,96.0,0.21,0.93,0.24,-11.0,3.0,10.0,kha
0.0,0.0,134.0,51.0,102.0,36.0,0.0,96.0,0.22,0.92,0.25,-9.0,2.0,7.0,kha
0.0,0.0,134.0,50.0,102.0,37.0,0.0,96.0,0.22,0.92,0.25,-7.0,0.0,3.0,kha
0.0,0.0,133.0,49.0,102.0,37.0,0.0,99.0,0.22,0.92,0.26,-5.0,-2.0,0.0,kha
0.0,0.0,134.0,49.0,105.0,39.0,0.0,96.0,0.21,0.93,0.26,-4.0,-5.0,1.0,kha
0.0,0.0,134.0,49.0,105.0,39.0,0.0,99.0,0.22,0.93,0.26,-6.0,-10.0,0.0,kha
0.0,0.0,134.0,49.0,120.0,39.0,0.0,99.0,0.22,0.93,0.27,-6.0,-16.0,-2.0,kha
0.0,0.0,134.0,49.0,117.0,39.0,0.0,96.0,0.23,0.92,0.27,-6.0,-18.0,-3.0,kha
0.0,0.0,135.0,49.0,114.0,40.0,0.0,96.0,0.23,0.92,0.26,-5.0,-18.0,-4.0,kha
0.0,0.0,134.0,49.0,117.0,40.0,0.0,99.0,0.23,0.92,0.26,-4.0,-15.0,-4.0,kha
0.0,0.0,134.0,49.0,114.0,42.0,0.0,99.0,0.24,0.92,0.26,-3.0,-11.0,-4.0,kha
0.0,0.0,134.0,49.0,111.0,42.0,0.0,99.0,0.23,0.92,0.26,-3.0,-2.0,-4.0,kha
0.0,0.0,134.0,50.0,114.0,40.0,0.0,101.0,0.23,0.93,0.26,0.0,3.0,-2.0,kha
0.0,0.0,134.0,50.0,120.0,40.0,0.0,104.0,0.23,0.92,0.26,1.0,9.0,-1.0,kha
0.0,0.0,134.0,51.0,120.0,40.0,0.0,106.0,0.24,0.92,0.26,2.0,16.0,-2.0,kha
0.0,0.0,134.0,51.0,120.0,40.0,0.0,106.0,0.23,0.92,0.26,6.0,23.0,-2.0,kha
0.0,0.0,134.0,51.0,105.0,42.0,0.0,106.0,0.22,0.92,0.25,11.0,32.0,-3.0,kha
0.0,0.0,134.0,51.0,108.0,40.0,0.0,109.0,0.21,0.93,0.24,13.0,38.0,-4.0,kha
0.0,0.0,134.0,51.0,111.0,40.0,0.0,109.0,0.2,0.94,0.24,13.0,40.0,-3.0,kha
0.0,0.0,134.0,51.0,108.0,40.0,0.0,109.0,0.19,0.94,0.23,13.0,43.0,-2.0,kha
0.0,0.0,133.0,51.0,108.0,42.0,0.0,109.0,0.18,0.94,0.22,12.0,40.0,-3.0,kha
0.0,0.0,134.0,50.0,111.0,40.0,0.0,109.0,0.17,0.95,0.21,11.0,35.0,-1.0,kha
0.0,0.0,133.0,49.0,108.0,43.0,0.0,109.0,0.16,0.96,0.21,8.0,32.0,0.0,kha
0.0,0.0,133.0,50.0,105.0,45.0,0.0,106.0,0.16,0.96,0.2,5.0,29.0,0.0,kha
0.0,0.0,133.0,49.0,108.0,45.0,0.0,106.0,0.15,0.95,0.2,4.0,24.0,0.0,kha
0.0,0.0,132.0,49.0,108.0,43.0,0.0,104.0,0.14,0.95,0.2,2.0,22.0,0.0,kha
0.0,0.0,132.0,50.0,111.0,42.0,0.0,104.0,0.15,0.96,0.19,0.0,16.0,1.0,kha
0.0,0.0,132.0,50.0,111.0,42.0,0.0,104.0,0.14,0.96,0.2,-3.0,10.0,0.0,kha
0.0,0.0,133.0,49.0,114.0,42.0,0.0,106.0,0.14,0.95,0.2,-6.0,5.0,0.0,kha
0.0,0.0,134.0,49.0,117.0,42.0,0.0,104.0,0.13,0.96,0.21,-8.0,-2.0,-1.0,kha
