idxUp,idxLow,midUp,midLow,ringUp,ringLow,thumb,pinky,ax,ay,az,gx,gy,gz,label
54.0,64.0,170.0,147.0,342.0,162.0,9.0,323.0,-0.32,0.88,0.26,1.0,7.0,2.0,ka
50.0,66.0,168.0,143.0,324.0,153.0,14.0,307.0,-0.33,0.88,0.26,0.0,7.0,0.0,ka
50.0,64.0,167.0,141.0,303.0,144.0,16.0,292.0,-0.33,0.88,0.25,-1.0,7.0,-2.0,ka
46.0,68.0,165.0,137.0,276.0,138.0,23.0,279.0,-0.33,0.88,0.25,-2.0,6.0,-3.0,ka
42.0,68.0,163.0,135.0,255.0,131.0,23.0,259.0,-0.34,0.88,0.25,-4.0,6.0,-3.0,ka
40.0,66.0,161.0,131.0,240.0,119.0,26.0,241.0,-0.35,0.88,0.25,-4.0,7.0,-3.0,ka
38.0,68.0,159.0,130.0,222.0,113.0,28.0,231.0,-0.35,0.88,0.25,-5.0,7.0,-3.0,ka
40.0,68.0,159.0,128.0,210.0,107.0,23.0,218.0,-0.35,0.88,0.25,-4.0,6.0,-3.0,ka
36.0,68.0,158.0,126.0,195.0,102.0,21.0,203.0,-0.35,0.88,0.24,-3.0,5.0,-3.0,ka
36.0,68.0,156.0,122.0,174.0,93.0,23.0,190.0,-0.36,0.88,0.24,-3.0,4.0,-3.0,ka
32.0,68.0,155.0,122.0,171.0,88.0,26.0,190.0,-0.36,0.88,0.24,-2.0,4.0,-2.0,ka
30.0,66.0,154.0,121.0,165.0,87.0,26.0,190.0,-0.36,0.88,0.23,-2.0,3.0,-1.0,ka
28.0,70.0,153.0,120.0,171.0,85.0,26.0,190.0,-0.37,0.88,0.23,-1.0,1.0,0.0,ka
26.0,70.0,153.0,120.0,168.0,85.0,19.0,185.0,-0.36,0.88,0.24,0.0,0.0,1.0,ka
26.0,68.0,152.0,120.0,168.0,85.0,2.0,185.0,-0.36,0.88,0.24,0.0,-3.0,1.0,ka
24.0,68.0,151.0,119.0,165.0,85.0,0.0,185.0,-0.36,0.88,0.24,0.0,-4.0,3.0,ka
24.0,66.0,151.0,118.0,165.0,84.0,2.0,178.0,-0.36,0.89,0.25,1.0,-6.0,3.0,ka
20.0,66.0,152.0,118.0,159.0,85.0,9.0,178.0,-0.35,0.89,0.26,2.0,-6.0,4.0,ka
20.0,66.0,151.0,118.0,162.0,85.0,14.0,180.0,-0.34,0.89,0.26,3.0,-6.0,4.0,ka
20.0,66.0,151.0,118.0,162.0,84.0,4.0,180.0,-0.33,0.87,0.25,4.0,-5.0,4.0,ka
18.0,68.0,151.0,118.0,162.0,87.0,16.0,178.0,-0.32,0.87,0.25,3.0,-5.0,3.0,ka
20.0,68.0,152.0,118.0,165.0,87.0,2.0,180.0,-0.31,0.87,0.26,2.0,-4.0,3.0,ka
20.0,64.0,151.0,118.0,159.0,87.0,4.0,180.0,-0.31,0.87,0.26,1.0,-1.0,1.0,ka
20.0,50.0,151.0,119.0,162.0,87.0,9.0,180.0,-0.31,0.88,0.27,1.0,0.0,2.0,ka
22.0,50.0,151.0,118.0,159.0,85.0,28.0,180.0,-0.3,0.88,0.27,0.0,4.0,2.0,ka
20.0,52.0,151.0,118.0,159.0,85.0,31.0,180.0,-0.29,0.88,0.26,-2.0,6.0,2.0,ka
22.0,50.0,151.0,118.0,159.0,85.0,35.0,188.0,-0.29,0.88,0.26,-3.0,11.0,3.0,ka
20.0,52.0,150.0,118.0,159.0,82.0,35.0,188.0,-0.29,0.88,0.25,-5.0,14.0,5.0,ka
22.0,62.0,150.0,118.0,153.0,82.0,38.0,180.0,-0.3,0.88,0.25,-6.0,15.0,6.0,ka
18.0,62.0,149.0,117.0,153.0,82.0,45.0,178.0,-0.3,0.89,0.25,-5.0,16.0,7.0,ka
18.0,62.0,149.0,117.0,153.0,82.0,33.0,178.0,-0.31,0.9,0.25,-3.0,16.0,8.0,ka
16.0,60.0,148.0,117.0,150.0,82.0,50.0,178.0,-0.31,0.91,0.25,-2.0,16.0,8.0,ka
14.0,62.0,148.0,116.0,150.0,82.0,52.0,175.0,-0.3,0.91,0.24,0.0,16.0,9.0,ka
16.0,66.0,148.0,116.0,150.0,82.0,52.0,175.0,-0.29,0.91,0.23,0.0,18.0,9.0,ka
14.0,66.0,147.0,115.0,150.0,81.0,45.0,173.0,-0.28,0.92,0.22,1.0,16.0,10.0,ka
12.0,66.0,147.0,115.0,147.0,81.0,47.0,170.0,-0.28,0.91,0.22,2.0,13.0,10.0,ka
12.0,66.0,146.0,114.0,147.0,81.0,45.0,170.0,-0.27,0.92,0.21,3.0,10.0,9.0,ka
10.0,68.0,146.0,114.0,141.0,81.0,45.0,170.0,-0.26,0.92,0.2,3.0,7.0,8.0,ka
8.0,54.0,145.0,114.0,144.0,79.0,45.0,175.0,-0.25,0.93,0.19,3.0,5.0,7.0,ka
10.0,54.0,145.0,114.0,144.0,79.0,47.0,175.0,-0.24,0.94,0.19,2.0,4.0,7.0,ka
12.0,54.0,145.0,114.0,141.0,79.0,52.0,178.0,-0.22,0.94,0.18,2.0,4.0,6.0,ka
10.0,56.0,144.0,114.0,141.0,79.0,52.0,178.0,-0.21,0.94,0.18,2.0,2.0,7.0,ka
12.0,54.0,143.0,114.0,138.0,79.0,52.0,178.0,-0.2,0.94,0.18,2.0,1.0,6.0,ka
12.0,66.0,146.0,114.0,144.0,78.0,52.0,178.0,-0.2,0.94,0.17,2.0,0.0,5.0,ka
10.0,64.0,146.0,114.0,144.0,78.0,59.0,180.0,-0.19,0.94,0.16,2.0,0.0,4.0,ka
12.0,64.0,146.0,114.0,144.0,78.0,59.0,173.0,-0.19,0.94,0.16,2.0,0.0,2.0,ka
12.0,64.0,146.0,113.0,144.0,78.0,57.0,173.0,-0.2,0.94,0.16,2.0,0.0,2.0,ka
14.0,64.0,144.0,112.0,147.0,78.0,54.0,173.0,-0.2,0.95,0.16,2.0,0.0,2.0,ka
12.0,66.0,145.0,113.0,144.0,78.0,50.0,170.0,-0.2,0.94,0.16,2.0,0.0,2.0,ka
12.0,66.0,145.0,113.0,144.0,79.0,47.0,167.0,-0.2,0.94,0.16,1.0,0.0,1.0,ka
12.0,64.0,145.0,112.0,147.0,78.0,47.0,165.0,-0.2,0.95,0.16,1.0,0.0,1.0,ka
10.0,62.0,145.0,113.0,147.0,78.0,47.0,165.0,-0.2,0.95,0.16,1.0,0.0,1.0,ka
10.0,62.0,145.0,112.0,141.0,78.0,42.0,162.0,-0.19,0.95,0.15,0.0,1.0,1.0,ka
8.0,62.0,141.0,111.0,141.0,79.0,42.0,162.0,-0.19,0.95,0.15,0.0,1.0,1.0,ka
10.0,62.0,140.0,111.0,138.0,78.0,38.0,162.0,-0.19,0.95,0.15,0.0,1.0,1.0,ka
4.0,62.0,140.0,111.0,141.0,78.0,38.0,167.0,-0.19,0.95,0.15,0.0,1.0,1.0,ka
0.0,62.0,141.0,111.0,138.0,78.0,50.0,162.0,-0.19,0.95,0.15,0.0,2.0,1.0,ka
2.0,62.0,142.0,112.0,138.0,79.0,54.0,162.0,-0.19,0.95,0.15,0.0,2.0,0.0,ka
0.0,60.0,142.0,110.0,135.0,78.0,57.0,165.0,-0.18,0.95,0.15,-1.0,2.0,0.0,ka
2.0,62.0,143.0,110.0,135.0,78.0,57.0,165.0,-0.18,0.95,0.15,-3.0,2.0,-1.0,ka
0.0,64.0,143.0,110.0,138.0,78.0,52.0,165.0,-0.18,0.95,0.15,-4.0,3.0,-4.0,ka
0.0,64.0,143.0,110.0,126.0,78.0,50.0,165.0,-0.19,0.95,0.15,-6.0,3.0,-6.0,ka
2.0,64.0,143.0,111.0,132.0,78.0,54.0,167.0,-0.19,0.94,0.16,-7.0,3.0,-8.0,ka
2.0,66.0,143.0,111.0,132.0,78.0,57.0,170.0,-0.2,0.94,0.16,-8.0,4.0,-11.0,ka
0.0,64.0,144.0,110.0,129.0,79.0,40.0,170.0,-0.21,0.93,0.16,-10.0,4.0,-14.0,ka
4.0,66.0,143.0,111.0,129.0,78.0,38.0,170.0,-0.22,0.93,0.17,-12.0,5.0,-18.0,ka
6.0,64.0,143.0,111.0,129.0,78.0,31.0,175.0,-0.25,0.92,0.19,-14.0,5.0,-21.0,ka
4.0,64.0,143.0,111.0,129.0,76.0,31.0,173.0,-0.27,0.91,0.2,-15.0,5.0,-24.0,ka
4.0,62.0,144.0,111.0,123.0,78.0,33.0,173.0,-0.29,0.9,0.21,-16.0,6.0,-26.0,ka
2.0,60.0,143.0,112.0,120.0,78.0,33.0,173.0,-0.31,0.89,0.22,-15.0,6.0,-27.0,ka
0.0,60.0,143.0,112.0,117.0,78.0,35.0,173.0,-0.34,0.88,0.23,-14.0,5.0,-27.0,ka
0.0,60.0,143.0,112.0,129.0,78.0,40.0,170.0,-0.36,0.86,0.24,-14.0,5.0,-27.0,ka
0.0,58.0,143.0,112.0,126.0,78.0,38.0,170.0,-0.39,0.85,0.25,-14.0,5.0,-27.0,ka
0.0,56.0,143.0,112.0,126.0,78.0,40.0,170.0,-0.41,0.84,0.26,-14.0,5.0,-26.0,ka
2.0,54.0,143.0,112.0,126.0,78.0,62.0,167.0,-0.43,0.83,0.27,-14.0,4.0,-25.0,ka
2.0,58.0,143.0,111.0,126.0,78.0,64.0,165.0,-0.45,0.82,0.28,-12.0,3.0,-23.0,ka
4.0,58.0,143.0,111.0,129.0,78.0,57.0,165.0,-0.47,0.81,0.29,-11.0,3.0,-21.0,ka
0.0,62.0,143.0,111.0,129.0,76.0,57.0,167.0,-0.48,0.8,0.29,-11.0,3.0,-20.0,ka
4.0,62.0,142.0,111.0,135.0,76.0,62.0,167.0,-0.5,0.79,0.3,-10.0,2.0,-19.0,ka
0.0,64.0,142.0,111.0,138.0,76.0,62.0,167.0,-0.52,0.77,0.31,-9.0,3.0,-17.0,ka
0.0,62.0,142.0,110.0,135.0,76.0,64.0,167.0,-0.53,0.77,0.31,-7.0,3.0,-14.0,ka
0.0,60.0,141.0,110.0,135.0,76.0,64.0,167.0,-0.54,0.76,0.32,-5.0,3.0,-10.0,ka
0.0,62.0,140.0,110.0,138.0,76.0,66.0,167.0,-0.54,0.76,0.31,-2.0,4.0,-4.0,ka
0.0,60.0,140.0,110.0,138.0,76.0,62.0,165.0,-0.55,0.75,0.31,1.0,4.0,-1.0,ka
0.0,62.0,140.0,109.0,135.0,76.0,52.0,165.0,-0.54,0.76,0.31,4.0,7.0,4.0,ka
0.0,60.0,139.0,109.0,135.0,76.0,45.0,165.0,-0.54,0.77,0.31,8.0,8.0,8.0,ka
0.0,58.0,138.0,108.0,135.0,76.0,52.0,165.0,-0.53,0.77,0.29,10.0,10.0,16.0,ka
4.0,56.0,138.0,108.0,132.0,76.0,52.0,162.0,-0.52,0.79,0.28,14.0,8.0,21.0,ka
4.0,58.0,138.0,107.0,129.0,76.0,47.0,160.0,-0.5,0.79,0.27,16.0,9.0,25.0,ka
4.0,58.0,138.0,107.0,132.0,76.0,50.0,162.0,-0.48,0.81,0.25,19.0,6.0,28.0,ka
6.0,60.0,138.0,106.0,132.0,76.0,45.0,162.0,-0.46,0.83,0.23,21.0,5.0,29.0,ka
8.0,64.0,138.0,105.0,129.0,76.0,42.0,162.0,-0.43,0.85,0.21,21.0,4.0,30.0,ka
10.0,62.0,138.0,103.0,129.0,76.0,40.0,162.0,-0.4,0.86,0.19,19.0,3.0,29.0,ka
10.0,62.0,138.0,103.0,129.0,76.0,38.0,165.0,-0.38,0.88,0.17,19.0,3.0,29.0,ka
8.0,62.0,140.0,103.0,129.0,76.0,54.0,165.0,-0.35,0.89,0.16,18.0,0.0,27.0,ka
8.0,60.0,140.0,102.0,129.0,78.0,57.0,165.0,-0.33,0.9,0.14,15.0,0.0,25.0,ka
2.0,60.0,141.0,101.0,129.0,75.0,54.0,165.0,-0.31,0.91,0.13,15.0,-2.0,20.0,ka
4.0,58.0,139.0,101.0,141.0,75.0,50.0,162.0,-0.29,0.92,0.11,13.0,0.0,19.0,ka
0.0,58.0,139.0,101.0,144.0,73.0,50.0,162.0,-0.27,0.94,0.1,11.0,1.0,17.0,ka
2.0,58.0,136.0,101.0,144.0,73.0,50.0,160.0,-0.26,0.94,0.09,9.0,3.0,16.0,ka
4.0,56.0,136.0,100.0,144.0,72.0,47.0,155.0,-0.24,0.94,0.08,7.0,3.0,16.0,ka
4.0,56.0,135.0,100.0,147.0,72.0,45.0,155.0,-0.23,0.95,0.07,7.0,4.0,14.0,ka
6.0,56.0,135.0,102.0,147.0,70.0,50.0,155.0,-0.21,0.95,0.07,7.0,5.0,14.0,ka
2.0,56.0,135.0,101.0,150.0,69.0,50.0,157.0,-0.2,0.96,0.06,6.0,5.0,13.0,ka
2.0,54.0,132.0,100.0,147.0,69.0,42.0,160.0,-0.19,0.96,0.05,5.0,5.0,12.0,ka
2.0,56.0,132.0,100.0,147.0,69.0,38.0,157.0,-0.17,0.97,0.04,4.0,5.0,11.0,ka
4.0,54.0,131.0,99.0,159.0,70.0,40.0,157.0,-0.16,0.97,0.04,3.0,4.0,9.0,ka
4.0,58.0,131.0,99.0,147.0,70.0,40.0,160.0,-0.15,0.97,0.03,2.0,4.0,6.0,ka
6.0,56.0,131.0,99.0,135.0,72.0,28.0,160.0,-0.15,0.97,0.03,2.0,3.0,4.0,ka
8.0,56.0,134.0,99.0,135.0,72.0,33.0,165.0,-0.15,0.97,0.03,0.0,2.0,1.0,ka
6.0,58.0,134.0,99.0,132.0,72.0,31.0,165.0,-0.15,0.98,0.03,-2.0,2.0,-1.0,ka
6.0,58.0,134.0,99.0,132.0,72.0,28.0,165.0,-0.15,0.97,0.03,-6.0,2.0,-3.0,ka
6.0,58.0,134.0,98.0,120.0,72.0,23.0,165.0,-0.15,0.98,0.03,-12.0,2.0,-5.0,ka
10.0,58.0,134.0,98.0,114.0,73.0,23.0,162.0,-0.16,0.99,0.04,-17.0,1.0,-6.0,ka
8.0,58.0,134.0,98.0,117.0,73.0,23.0,160.0,-0.16,0.97,0.06,-21.0,1.0,-6.0,ka
6.0,58.0,134.0,98.0,120.0,72.0,28.0,165.0,-0.17,0.96,0.08,-26.0,0.0,-5.0,ka
6.0,58.0,134.0,99.0,102.0,72.0,21.0,162.0,-0.17,0.96,0.11,-28.0,0.0,-4.0,ka
6.0,58.0,134.0,98.0,105.0,69.0,23.0,165.0,-0.17,0.95,0.13,-30.0,0.0,-2.0,ka
4.0,58.0,134.0,98.0,114.0,69.0,33.0,165.0,-0.17,0.94,0.16,-33.0,-1.0,-1.0,ka
4.0,60.0,134.0,98.0,117.0,67.0,28.0,162.0,-0.17,0.93,0.19,-35.0,0.0,0.0,ka
2.0,58.0,134.0,97.0,117.0,67.0,28.0,170.0,-0.17,0.92,0.22,-36.0,-1.0,1.0,ka
2.0,58.0,134.0,97.0,111.0,67.0,28.0,167.0,-0.16,0.92,0.25,-34.0,-2.0,2.0,ka
0.0,58.0,134.0,98.0,123.0,67.0,28.0,167.0,-0.16,0.9,0.29,-32.0,-2.0,3.0,ka
0.0,58.0,134.0,98.0,123.0,67.0,26.0,165.0,-0.16,0.89,0.32,-30.0,-2.0,3.0,ka
0.0,58.0,134.0,99.0,120.0,69.0,21.0,165.0,-0.15,0.89,0.34,-27.0,-1.0,3.0,ka
0.0,60.0,134.0,99.0,117.0,69.0,11.0,160.0,-0.15,0.9,0.36,-24.0,0.0,2.0,ka
0.0,60.0,134.0,99.0,120.0,69.0,19.0,162.0,-0.15,0.89,0.38,-22.0,1.0,2.0,ka
0.0,60.0,134.0,99.0,117.0,70.0,23.0,160.0,-0.15,0.88,0.4,-21.0,1.0,2.0,ka
0.0,60.0,135.0,99.0,117.0,70.0,21.0,160.0,-0.15,0.88,0.41,-19.0,3.0,1.0,ka
0.0,58.0,135.0,99.0,114.0,70.0,21.0,160.0,-0.14,0.87,0.43,-17.0,3.0,1.0,ka
0.0,64.0,135.0,99.0,123.0,72.0,26.0,155.0,-0.15,0.87,0.44,-16.0,3.0,0.0,ka
0.0,64.0,134.0,99.0,123.0,72.0,28.0,155.0,-0.15,0.86,0.45,-15.0,3.0,0.0,ka
2.0,75.0,135.0,99.0,126.0,72.0,26.0,155.0,-0.15,0.86,0.46,-14.0,4.0,0.0,ka
0.0,75.0,134.0,99.0,126.0,70.0,28.0,155.0,-0.15,0.85,0.47,-11.0,4.0,0.0,ka
8.0,75.0,134.0,99.0,126.0,72.0,33.0,155.0,-0.15,0.85,0.48,-8.0,4.0,-2.0,ka
10.0,75.0,134.0,98.0,123.0,72.0,45.0,160.0,-0.16,0.85,0.48,-5.0,3.0,-2.0,ka
8.0,73.0,134.0,99.0,126.0,72.0,40.0,160.0,-0.16,0.85,0.48,-2.0,3.0,-2.0,ka
6.0,73.0,133.0,98.0,126.0,73.0,35.0,155.0,-0.16,0.84,0.48,3.0,4.0,-3.0,ka
6.0,75.0,133.0,98.0,126.0,73.0,33.0,155.0,-0.16,0.85,0.47,8.0,3.0,-4.0,ka
6.0,75.0,133.0,96.0,120.0,73.0,33.0,155.0,-0.16,0.86,0.45,12.0,4.0,-5.0,ka
8.0,68.0,133.0,97.0,108.0,73.0,28.0,152.0,-0.16,0.86,0.44,17.0,4.0,-6.0,ka
6.0,68.0,133.0,98.0,108.0,73.0,33.0,152.0,-0.17,0.87,0.42,22.0,4.0,-6.0,ka
4.0,60.0,132.0,95.0,111.0,73.0,31.0,155.0,-0.17,0.88,0.4,28.0,4.0,-7.0,ka
4.0,58.0,133.0,96.0,108.0,73.0,28.0,152.0,-0.18,0.89,0.37,33.0,3.0,-8.0,ka
0.0,56.0,133.0,96.0,102.0,72.0,23.0,152.0,-0.19,0.89,0.34,35.0,2.0,-9.0,ka
0.0,56.0,133.0,92.0,105.0,72.0,23.0,150.0,-0.19,0.91,0.31,36.0,2.0,-9.0,ka
0.0,56.0,132.0,92.0,102.0,70.0,23.0,147.0,-0.2,0.92,0.28,38.0,0.0,-10.0,ka
0.0,54.0,132.0,92.0,99.0,70.0,23.0,147.0,-0.2,0.93,0.24,37.0,0.0,-10.0,ka
0.0,54.0,133.0,92.0,99.0,70.0,23.0,145.0,-0.21,0.94,0.21,35.0,-1.0,-10.0,ka
0.0,56.0,132.0,94.0,108.0,69.0,26.0,147.0,-0.22,0.94,0.18,33.0,-2.0,-9.0,ka
0.0,56.0,131.0,95.0,108.0,70.0,21.0,145.0,-0.23,0.94,0.15,31.0,-2.0,-8.0,ka
0.0,56.0,131.0,94.0,108.0,69.0,26.0,145.0,-0.23,0.95,0.12,30.0,-3.0,-8.0,ka
0.0,54.0,131.0,95.0,111.0,67.0,28.0,145.0,-0.24,0.94,0.1,27.0,-3.0,-7.0,ka
0.0,54.0,131.0,96.0,111.0,67.0,31.0,145.0,-0.25,0.95,0.07,23.0,-2.0,-6.0,ka
0.0,56.0,131.0,95.0,117.0,66.0,40.0,145.0,-0.25,0.95,0.05,22.0,-2.0,-6.0,ka
0.0,56.0,131.0,99.0,120.0,64.0,42.0,145.0,-0.26,0.94,0.03,20.0,-1.0,-5.0,ka
0.0,56.0,131.0,99.0,117.0,66.0,47.0,145.0,-0.26,0.94,0.01,18.0,0.0,-5.0,ka
0.0,54.0,130.0,99.0,117.0,66.0,47.0,145.0,-0.27,0.94,-0.0,16.0,0.0,-5.0,ka
0.0,54.0,130.0,100.0,117.0,64.0,50.0,147.0,-0.27,0.94,-0.01,15.0,0.0,-4.0,ka
0.0,52.0,130.0,97.0,117.0,66.0,54.0,145.0,-0.28,0.93,-0.03,13.0,0.0,-3.0,ka
0.0,52.0,130.0,97.0,114.0,66.0,59.0,147.0,-0.27,0.94,-0.04,10.0,0.0,-3.0,ka
0.0,52.0,130.0,98.0,114.0,66.0,57.0,147.0,-0.28,0.94,-0.05,7.0,0.0,-2.0,ka
4.0,52.0,130.0,101.0,108.0,67.0,62.0,147.0,-0.28,0.94,-0.05,5.0,0.0,-2.0,ka
6.0,52.0,130.0,100.0,111.0,67.0,57.0,145.0,-0.28,0.94,-0.06,2.0,0.0,0.0,ka
4.0,50.0,129.0,100.0,108.0,69.0,57.0,145.0,-0.28,0.94,-0.06,0.0,1.0,0.0,ka
2.0,52.0,129.0,100.0,108.0,69.0,59.0,145.0,-0.27,0.95,-0.06,-4.0,1.0,0.0,ka
4.0,52.0,129.0,100.0,105.0,67.0,57.0,145.0,-0.28,0.95,-0.06,-6.0,2.0,-2.0,ka
2.0,56.0,129.0,100.0,102.0,67.0,54.0,142.0,-0.28,0.94,-0.05,-8.0,4.0,-4.0,ka
2.0,54.0,130.0,99.0,102.0,67.0,57.0,142.0,-0.27,0.95,-0.05,-11.0,5.0,-8.0,ka
2.0,56.0,130.0,101.0,102.0,66.0,57.0,145.0,-0.29,0.94,-0.03,-12.0,7.0,-12.0,ka
0.0,56.0,130.0,100.0,108.0,66.0,57.0,145.0,-0.29,0.93,-0.03,-12.0,8.0,-16.0,ka
2.0,56.0,130.0,100.0,111.0,66.0,52.0,145.0,-0.31,0.93,-0.02,-10.0,6.0,-18.0,ka
0.0,60.0,130.0,97.0,111.0,64.0,52.0,145.0,-0.33,0.92,-0.02,-10.0,7.0,-19.0,ka
0.0,58.0,130.0,97.0,108.0,64.0,59.0,150.0,-0.35,0.91,-0.01,-9.0,7.0,-20.0,ka
0.0,60.0,130.0,97.0,108.0,66.0,57.0,145.0,-0.36,0.91,-0.0,-10.0,7.0,-17.0,ka
0.0,56.0,130.0,98.0,108.0,66.0,50.0,145.0,-0.38,0.89,0.01,-10.0,8.0,-12.0,ka
2.0,52.0,130.0,97.0,111.0,66.0,50.0,145.0,-0.38,0.89,0.01,-10.0,9.0,-8.0,ka
2.0,52.0,130.0,96.0,114.0,64.0,50.0,147.0,-0.38,0.89,0.02,-7.0,6.0,-3.0,ka
4.0,58.0,130.0,96.0,120.0,66.0,50.0,147.0,-0.38,0.89,0.02,-7.0,8.0,5.0,ka
4.0,56.0,130.0,96.0,120.0,66.0,47.0,150.0,-0.36,0.9,0.02,-6.0,5.0,11.0,ka
2.0,56.0,129.0,95.0,117.0,66.0,47.0,150.0,-0.35,0.91,0.03,-7.0,5.0,17.0,ka
2.0,50.0,129.0,95.0,111.0,66.0,45.0,150.0,-0.33,0.91,0.04,-8.0,6.0,20.0,ka
0.0,48.0,129.0,95.0,111.0,66.0,45.0,150.0,-0.31,0.92,0.04,-7.0,7.0,23.0,ka
0.0,46.0,129.0,93.0,129.0,66.0,40.0,150.0,-0.28,0.93,0.04,-5.0,7.0,26.0,ka
0.0,46.0,129.0,92.0,129.0,66.0,38.0,150.0,-0.26,0.94,0.05,-3.0,8.0,26.0,ka
0.0,40.0,129.0,92.0,129.0,64.0,42.0,155.0,-0.23,0.95,0.04,-1.0,7.0,24.0,ka
0.0,38.0,129.0,92.0,129.0,66.0,40.0,157.0,-0.21,0.96,0.04,0.0,5.0,21.0,ka
0.0,38.0,126.0,92.0,129.0,66.0,40.0,155.0,-0.2,0.97,0.03,-2.0,6.0,20.0,ka
0.0,34.0,125.0,92.0,132.0,64.0,40.0,157.0,-0.18,0.97,0.04,0.0,4.0,16.0,ka
0.0,34.0,125.0,91.0,132.0,64.0,35.0,155.0,-0.17,0.97,0.03,-2.0,4.0,12.0,ka
0.0,34.0,125.0,91.0,126.0,64.0,33.0,155.0,-0.16,0.97,0.03,-3.0,3.0,5.0,ka
0.0,40.0,124.0,90.0,126.0,64.0,31.0,155.0,-0.15,0.97,0.03,-7.0,0.0,1.0,ka
0.0,40.0,122.0,90.0,126.0,64.0,40.0,152.0,-0.15,0.97,0.04,-12.0,-2.0,-3.0,ka
0.0,44.0,122.0,91.0,111.0,66.0,38.0,152.0,-0.15,0.97,0.06,-20.0,-5.0,-9.0,ka
0.0,44.0,123.0,93.0,111.0,66.0,40.0,152.0,-0.15,0.96,0.08,-28.0,-5.0,-15.0,ka
0.0,52.0,124.0,93.0,108.0,67.0,23.0,147.0,-0.17,0.96,0.12,-33.0,-3.0,-21.0,ka
0.0,52.0,124.0,94.0,111.0,66.0,23.0,145.0,-0.19,0.94,0.15,-37.0,-2.0,-25.0,ka
0.0,50.0,127.0,96.0,108.0,67.0,26.0,145.0,-0.22,0.93,0.18,-42.0,0.0,-29.0,ka
0.0,48.0,128.0,96.0,102.0,67.0,28.0,142.0,-0.25,0.92,0.22,-44.0,0.0,-31.0,ka
0.0,48.0,129.0,98.0,102.0,67.0,31.0,142.0,-0.28,0.89,0.26,-43.0,1.0,-31.0,ka
0.0,46.0,129.0,99.0,105.0,69.0,31.0,139.0,-0.31,0.88,0.3,-41.0,3.0,-28.0,ka
0.0,46.0,131.0,100.0,105.0,69.0,35.0,142.0,-0.33,0.85,0.34,-38.0,5.0,-25.0,ka
0.0,44.0,132.0,100.0,108.0,69.0,31.0,142.0,-0.35,0.83,0.37,-31.0,8.0,-23.0,ka
0.0,42.0,132.0,100.0,108.0,66.0,31.0,142.0,-0.37,0.82,0.39,-20.0,11.0,-18.0,ka
0.0,42.0,132.0,99.0,111.0,66.0,28.0,142.0,-0.39,0.81,0.39,-11.0,13.0,-10.0,ka
0.0,42.0,131.0,99.0,111.0,66.0,42.0,145.0,-0.41,0.8,0.39,-3.0,14.0,-3.0,ka
0.0,46.0,130.0,99.0,108.0,67.0,31.0,147.0,-0.41,0.8,0.38,5.0,15.0,4.0,ka
0.0,48.0,130.0,98.0,108.0,66.0,31.0,147.0,-0.41,0.79,0.38,13.0,15.0,12.0,ka
0.0,52.0,129.0,98.0,111.0,66.0,26.0,145.0,-0.4,0.81,0.36,19.0,18.0,17.0,ka
0.0,50.0,130.0,97.0,108.0,66.0,26.0,145.0,-0.38,0.82,0.33,24.0,17.0,21.0,ka
0.0,50.0,130.0,96.0,114.0,64.0,26.0,145.0,-0.36,0.84,0.3,28.0,18.0,24.0,ka
0.0,48.0,129.0,95.0,111.0,66.0,35.0,142.0,-0.35,0.86,0.27,31.0,19.0,25.0,ka
0.0,48.0,127.0,94.0,111.0,66.0,31.0,142.0,-0.33,0.88,0.23,32.0,18.0,27.0,ka
0.0,48.0,129.0,94.0,108.0,66.0,59.0,142.0,-0.32,0.89,0.2,28.0,17.0,26.0,ka
0.0,46.0,129.0,94.0,105.0,66.0,62.0,142.0,-0.3,0.91,0.17,27.0,16.0,24.0,ka
0.0,48.0,129.0,93.0,108.0,64.0,54.0,142.0,-0.28,0.92,0.14,25.0,15.0,22.0,ka
0.0,48.0,129.0,93.0,105.0,64.0,69.0,139.0,-0.26,0.93,0.12,21.0,14.0,20.0,ka
0.0,50.0,129.0,92.0,105.0,61.0,66.0,142.0,-0.24,0.95,0.09,18.0,13.0,18.0,ka
0.0,48.0,129.0,92.0,105.0,63.0,69.0,145.0,-0.23,0.95,0.07,16.0,11.0,15.0,ka
0.0,52.0,127.0,92.0,105.0,61.0,66.0,145.0,-0.22,0.96,0.05,12.0,12.0,14.0,ka
0.0,52.0,127.0,92.0,108.0,61.0,62.0,145.0,-0.21,0.96,0.04,10.0,10.0,12.0,ka
0.0,52.0,127.0,91.0,108.0,61.0,52.0,145.0,-0.2,0.96,0.02,6.0,10.0,10.0,ka
0.0,54.0,128.0,90.0,105.0,61.0,52.0,145.0,-0.18,0.96,0.02,4.0,9.0,8.0,ka
0.0,66.0,126.0,92.0,120.0,61.0,23.0,145.0,-0.18,0.96,0.01,3.0,8.0,7.0,ka
0.0,66.0,126.0,92.0,117.0,63.0,23.0,145.0,-0.17,0.96,0.01,1.0,6.0,4.0,ka
0.0,66.0,126.0,92.0,120.0,63.0,26.0,145.0,-0.17,0.97,0.0,-1.0,4.0,2.0,ka
0.0,66.0,125.0,92.0,120.0,61.0,26.0,147.0,-0.17,0.97,0.0,-3.0,0.0,-2.0,ka
0.0,64.0,125.0,91.0,123.0,64.0,26.0,150.0,-0.17,0.96,0.01,-4.0,-6.0,-6.0,ka
0.0,64.0,124.0,91.0,120.0,64.0,28.0,150.0,-0.18,0.96,0.01,-5.0,-9.0,-9.0,ka
0.0,62.0,124.0,90.0,123.0,63.0,26.0,150.0,-0.19,0.96,0.02,-4.0,-18.0,-11.0,ka
0.0,60.0,124.0,91.0,120.0,63.0,31.0,152.0,-0.2,0.96,0.03,-3.0,-24.0,-14.0,ka
0.0,60.0,123.0,92.0,120.0,63.0,35.0,152.0,-0.21,0.96,0.04,-2.0,-30.0,-16.0,ka
0.0,60.0,123.0,92.0,120.0,63.0,33.0,152.0,-0.22,0.95,0.04,0.0,-35.0,-18.0,ka
0.0,50.0,123.0,91.0,105.0,64.0,33.0,155.0,-0.24,0.94,0.05,1.0,-38.0,-19.0,ka
0.0,52.0,123.0,90.0,108.0,63.0,23.0,152.0,-0.26,0.94,0.06,1.0,-41.0,-19.0,ka
0.0,48.0,123.0,91.0,102.0,64.0,26.0,152.0,-0.27,0.94,0.07,4.0,-43.0,-18.0,ka
0.0,48.0,123.0,93.0,99.0,66.0,26.0,150.0,-0.28,0.93,0.08,6.0,-43.0,-17.0,ka
0.0,48.0,123.0,94.0,99.0,66.0,26.0,147.0,-0.28,0.93,0.08,6.0,-39.0,-15.0,ka
0.0,48.0,124.0,95.0,99.0,66.0,21.0,147.0,-0.29,0.93,0.09,6.0,-36.0,-13.0,ka
0.0,50.0,124.0,96.0,99.0,70.0,23.0,145.0,-0.3,0.92,0.09,4.0,-28.0,-11.0,ka
2.0,48.0,124.0,96.0,102.0,69.0,26.0,147.0,-0.3,0.92,0.09,4.0,-23.0,-9.0,ka
4.0,48.0,125.0,96.0,102.0,69.0,47.0,145.0,-0.31,0.92,0.09,2.0,-17.0,-7.0,ka
6.0,42.0,126.0,98.0,99.0,69.0,54.0,150.0,-0.32,0.92,0.09,0.0,-13.0,-6.0,ka
6.0,40.0,126.0,98.0,99.0,69.0,52.0,147.0,-0.32,0.92,0.1,-1.0,-9.0,-5.0,ka
6.0,40.0,126.0,99.0,99.0,67.0,64.0,150.0,-0.32,0.92,0.1,-3.0,-6.0,-4.0,ka
4.0,42.0,126.0,99.0,102.0,67.0,62.0,150.0,-0.32,0.92,0.1,-4.0,-3.0,-3.0,ka
2.0,44.0,126.0,99.0,105.0,66.0,59.0,152.0,-0.32,0.91,0.11,-5.0,-1.0,-3.0,ka
2.0,42.0,126.0,98.0,105.0,64.0,62.0,152.0,-0.32,0.91,0.11,-5.0,0.0,-1.0,ka
0.0,42.0,126.0,98.0,102.0,66.0,66.0,152.0,-0.32,0.91,0.12,-5.0,0.0,0.0,ka
0.0,40.0,126.0,98.0,102.0,63.0,66.0,152.0,-0.32,0.91,0.12,-4.0,0.0,0.0,ka
0.0,42.0,126.0,98.0,102.0,63.0,59.0,150.0,-0.32,0.91,0.12,-4.0,1.0,1.0,ka
0.0,42.0,126.0,97.0,99.0,63.0,35.0,150.0,-0.32,0.91,0.13,-4.0,1.0,2.0,ka
0.0,46.0,124.0,96.0,99.0,63.0,31.0,145.0,-0.31,0.91,0.13,-3.0,2.0,2.0,ka
0.0,48.0,123.0,96.0,99.0,63.0,31.0,145.0,-0.31,0.91,0.13,-2.0,2.0,2.0,ka
0.0,48.0,123.0,96.0,102.0,64.0,28.0,142.0,-0.31,0.92,0.13,-2.0,3.0,3.0,ka
0.0,50.0,123.0,95.0,102.0,64.0,28.0,142.0,-0.3,0.91,0.13,-1.0,2.0,3.0,ka
0.0,48.0,123.0,95.0,99.0,64.0,28.0,139.0,-0.3,0.92,0.13,-2.0,4.0,4.0,ka
0.0,46.0,123.0,94.0,96.0,64.0,28.0,137.0,-0.3,0.92,0.13,-1.0,3.0,4.0,ka
0.0,48.0,123.0,92.0,99.0,64.0,28.0,137.0,-0.29,0.92,0.12,-1.0,4.0,3.0,ka
0.0,50.0,123.0,92.0,99.0,66.0,26.0,137.0,-0.29,0.92,0.12,-1.0,4.0,3.0,ka
0.0,50.0,123.0,92.0,96.0,66.0,31.0,137.0,-0.29,0.92,0.12,-1.0,3.0,3.0,ka
0.0,50.0,123.0,92.0,96.0,66.0,35.0,134.0,-0.28,0.92,0.12,-1.0,3.0,3.0,ka
0.0,52.0,125.0,91.0,93.0,66.0,31.0,134.0,-0.28,0.92,0.12,-2.0,3.0,2.0,ka
0.0,50.0,126.0,91.0,93.0,64.0,26.0,134.0,-0.28,0.92,0.12,-2.0,3.0,2.0,ka
0.0,50.0,126.0,91.0,99.0,64.0,26.0,132.0,-0.28,0.92,0.12,-2.0,3.0,2.0,ka
0.0,50.0,125.0,92.0,99.0,64.0,26.0,132.0,-0.27,0.93,0.12,-2.0,2.0,1.0,ka
0.0,50.0,125.0,92.0,102.0,63.0,26.0,134.0,-0.27,0.93,0.12,-1.0,2.0,0.0,ka
0.0,52.0,126.0,92.0,102.0,63.0,26.0,137.0,-0.27,0.93,0.12,-1.0,2.0,0.0,ka
0.0,50.0,125.0,93.0,102.0,63.0,26.0,134.0,-0.27,0.93,0.12,-1.0,2.0,0.0,ka
0.0,50.0,125.0,95.0,102.0,61.0,28.0,134.0,-0.27,0.93,0.12,-2.0,2.0,-1.0,ka
0.0,48.0,125.0,95.0,102.0,63.0,28.0,134.0,-0.27,0.93,0.12,-2.0,3.0,-1.0,ka
0.0,48.0,125.0,95.0,105.0,61.0,21.0,132.0,-0.27,0.93,0.12,-2.0,2.0,-1.0,ka
0.0,50.0,125.0,94.0,111.0,61.0,23.0,137.0,-0.28,0.93,0.12,0.0,2.0,-1.0,ka
0.0,46.0,125.0,94.0,111.0,61.0,31.0,134.0,-0.27,0.93,0.12,0.0,2.0,-1.0,ka
2.0,46.0,125.0,93.0,105.0,60.0,31.0,139.0,-0.28,0.93,0.12,-1.0,3.0,-2.0,ka
6.0,48.0,126.0,93.0,105.0,60.0,38.0,137.0,-0.28,0.92,0.12,-1.0,3.0,-2.0,ka
10.0,46.0,126.0,90.0,102.0,61.0,38.0,137.0,-0.28,0.92,0.12,-1.0,2.0,-1.0,ka
12.0,44.0,126.0,90.0,102.0,61.0,40.0,134.0,-0.28,0.92,0.12,-1.0,2.0,-1.0,ka
10.0,42.0,126.0,91.0,102.0,61.0,40.0,134.0,-0.28,0.92,0.12,-2.0,2.0,-1.0,ka
10.0,42.0,126.0,89.0,102.0,60.0,19.0,134.0,-0.28,0.92,0.12,-1.0,2.0,0.0,ka
12.0,44.0,126.0,89.0,108.0,60.0,21.0,139.0,-0.28,0.92,0.12,0.0,2.0,0.0,ka
8.0,44.0,126.0,88.0,114.0,60.0,21.0,139.0,-0.28,0.92,0.12,0.0,2.0,0.0,ka
6.0,42.0,126.0,90.0,108.0,61.0,23.0,139.0,-0.28,0.93,0.12,-1.0,2.0,0.0,ka
4.0,42.0,126.0,90.0,105.0,61.0,23.0,142.0,-0.28,0.93,0.12,-1.0,2.0,0.0,ka
0.0,40.0,125.0,90.0,105.0,61.0,26.0,137.0,-0.28,0.93,0.12,-1.0,2.0,0.0,ka
0.0,38.0,125.0,90.0,102.0,63.0,14.0,139.0,-0.28,0.93,0.12,-1.0,2.0,0.0,ka
0.0,40.0,124.0,92.0,105.0,63.0,14.0,139.0,-0.28,0.93,0.12,-2.0,2.0,0.0,ka
0.0,44.0,125.0,92.0,105.0,63.0,11.0,139.0,-0.28,0.93,0.12,-1.0,2.0,0.0,ka
0.0,42.0,125.0,92.0,105.0,63.0,0.0,139.0,-0.28,0.93,0.12,-1.0,2.0,0.0,ka
0.0,44.0,125.0,92.0,105.0,63.0,19.0,139.0,-0.28,0.93,0.12,-2.0,2.0,0.0,ka
0.0,42.0,124.0,90.0,102.0,63.0,14.0,132.0,-0.28,0.93,0.12,-2.0,2.0,0.0,ka
0.0,42.0,124.0,91.0,96.0,63.0,14.0,132.0,-0.28,0.93,0.12,-2.0,2.0,0.0,ka
0.0,44.0,124.0,91.0,96.0,63.0,14.0,127.0,-0.28,0.93,0.12,-1.0,2.0,0.0,ka
0.0,46.0,125.0,91.0,99.0,61.0,9.0,127.0,-0.28,0.93,0.12,-1.0,2.0,0.0,ka
0.0,48.0,125.0,90.0,99.0,61.0,7.0,129.0,-0.28,0.93,0.12,-1.0,2.0,0.0,ka
0.0,52.0,125.0,91.0,99.0,61.0,4.0,127.0,-0.28,0.93,0.12,-1.0,2.0,0.0,ka
0.0,52.0,125.0,91.0,99.0,61.0,7.0,129.0,-0.28,0.93,0.12,-1.0,2.0,0.0,ka
0.0,50.0,125.0,92.0,96.0,63.0,4.0,129.0,-0.28,0.93,0.12,-1.0,2.0,0.0,ka
0.0,52.0,125.0,92.0,96.0,63.0,19.0,129.0,-0.28,0.93,0.12,-1.0,2.0,0.0,ka
0.0,50.0,124.0,92.0,93.0,63.0,21.0,129.0,-0.27,0.93,0.12,-1.0,2.0,0.0,ka
0.0,50.0,125.0,92.0,93.0,63.0,26.0,134.0,-0.27,0.93,0.12,-1.0,2.0,0.0,ka
0.0,50.0,125.0,92.0,93.0,63.0,31.0,134.0,-0.27,0.93,0.12,-1.0,2.0,0.0,ka
0.0,50.0,124.0,92.0,93.0,63.0,33.0,134.0,-0.27,0.93,0.12,-2.0,2.0,0.0,ka
0.0,50.0,125.0,92.0,93.0,63.0,35.0,137.0,-0.27,0.93,0.12,-2.0,2.0,0.0,ka
0.0,50.0,125.0,93.0,90.0,63.0,42.0,134.0,-0.27,0.93,0.12,-2.0,2.0,0.0,ka
0.0,46.0,124.0,92.0,93.0,61.0,45.0,137.0,-0.27,0.93,0.12,-2.0,2.0,0.0,ka
0.0,46.0,124.0,92.0,93.0,63.0,42.0,137.0,-0.27,0.93,0.12,-1.0,2.0,0.0,ka
0.0,46.0,124.0,92.0,96.0,61.0,42.0,132.0,-0.27,0.93,0.12,-1.0,2.0,0.0,ka
0.0,46.0,124.0,92.0,96.0,61.0,42.0,132.0,-0.27,0.93,0.12,0.0,2.0,0.0,ka
0.0,46.0,124.0,92.0,93.0,61.0,16.0,132.0,-0.27,0.93,0.11,-1.0,2.0,0.0,ka
0.0,48.0,124.0,92.0,93.0,61.0,14.0,132.0,-0.27,0.93,0.11,0.0,2.0,0.0,ka
0.0,48.0,124.0,93.0,90.0,61.0,16.0,132.0,-0.27,0.93,0.11,0.0,2.0,0.0,ka
0.0,52.0,123.0,93.0,90.0,61.0,9.0,134.0,-0.27,0.93,0.11,0.0,2.0,0.0,ka
0.0,50.0,123.0,94.0,87.0,61.0,14.0,132.0,-0.27,0.93,0.11,0.0,2.0,0.0,ka
0.0,50.0,123.0,94.0,96.0,63.0,9.0,132.0,-0.27,0.93,0.11,0.0,2.0,0.0,ka
0.0,50.0,124.0,94.0,96.0,63.0,16.0,132.0,-0.27,0.93,0.11,0.0,2.0,0.0,ka
0.0,50.0,122.0,94.0,96.0,64.0,14.0,129.0,-0.26,0.93,0.11,0.0,2.0,0.0,ka
0.0,50.0,125.0,94.0,99.0,64.0,16.0,134.0,-0.26,0.93,0.11,0.0,2.0,0.0,ka
0.0,50.0,125.0,94.0,96.0,64.0,16.0,134.0,-0.26,0.94,0.11,0.0,2.0,0.0,ka
0.0,50.0,124.0,94.0,96.0,67.0,42.0,134.0,-0.26,0.93,0.11,0.0,2.0,0.0,ka
0.0,46.0,125.0,93.0,93.0,67.0,40.0,137.0,-0.26,0.93,0.1,0.0,2.0,0.0,ka
0.0,46.0,124.0,92.0,96.0,67.0,40.0,137.0,-0.27,0.93,0.1,0.0,2.0,0.0,ka
0.0,46.0,125.0,92.0,99.0,67.0,33.0,137.0,-0.27,0.93,0.1,0.0,2.0,0.0,ka
0.0,44.0,126.0,91.0,99.0,67.0,31.0,137.0,-0.27,0.93,0.1,0.0,2.0,0.0,ka
0.0,48.0,126.0,91.0,96.0,66.0,35.0,137.0,-0.27,0.94,0.1,-1.0,2.0,0.0,ka
0.0,48.0,126.0,91.0,99.0,64.0,31.0,134.0,-0.27,0.94,0.1,-1.0,2.0,0.0,ka
0.0,48.0,128.0,91.0,96.0,64.0,33.0,139.0,-0.27,0.94,0.1,-2.0,2.0,0.0,ka
0.0,50.0,125.0,91.0,99.0,61.0,31.0,139.0,-0.27,0.94,0.1,-1.0,2.0,0.0,ka
0.0,54.0,124.0,91.0,96.0,61.0,28.0,139.0,-0.27,0.94,0.1,-2.0,2.0,0.0,ka
0.0,52.0,125.0,92.0,96.0,58.0,31.0,139.0,-0.27,0.94,0.1,-2.0,2.0,0.0,ka
0.0,54.0,125.0,91.0,102.0,58.0,28.0,137.0,-0.27,0.94,0.1,-2.0,2.0,0.0,ka
0.0,54.0,125.0,92.0,102.0,58.0,31.0,137.0,-0.27,0.94,0.1,-1.0,2.0,0.0,ka
0.0,52.0,125.0,92.0,99.0,58.0,40.0,137.0,-0.27,0.94,0.1,-1.0,2.0,0.0,ka
0.0,52.0,124.0,91.0,99.0,58.0,35.0,134.0,-0.27,0.94,0.1,-1.0,2.0,0.0,ka
0.0,50.0,124.0,90.0,99.0,60.0,33.0,134.0,-0.27,0.94,0.1,-1.0,2.0,0.0,ka
0.0,48.0,124.0,90.0,96.0,60.0,31.0,142.0,-0.27,0.94,0.1,-1.0,2.0,0.0,ka
0.0,50.0,124.0,90.0,96.0,60.0,31.0,137.0,-0.27,0.94,0.1,0.0,2.0,0.0,ka
0.0,48.0,124.0,90.0,96.0,63.0,33.0,137.0,-0.26,0.94,0.1,-1.0,2.0,0.0,ka
0.0,44.0,123.0,90.0,99.0,61.0,40.0,137.0,-0.27,0.94,0.1,0.0,2.0,0.0,ka
0.0,46.0,123.0,90.0,99.0,61.0,40.0,129.0,-0.27,0.94,0.09,0.0,2.0,0.0,ka
0.0,44.0,123.0,91.0,96.0,61.0,42.0,129.0,-0.27,0.94,0.09,0.0,2.0,0.0,ka
0.0,46.0,123.0,90.0,99.0,61.0,45.0,132.0,-0.26,0.94,0.09,-1.0,1.0,0.0,ka
0.0,46.0,125.0,88.0,96.0,61.0,50.0,132.0,-0.26,0.94,0.09,0.0,2.0,0.0,ka
0.0,48.0,126.0,89.0,99.0,61.0,71.0,139.0,-0.26,0.94,0.09,-1.0,2.0,0.0,ka
0.0,48.0,125.0,90.0,99.0,61.0,76.0,137.0,-0.26,0.94,0.09,0.0,2.0,0.0,ka
0.0,46.0,125.0,90.0,99.0,66.0,81.0,129.0,-0.26,0.94,0.09,-1.0,1.0,0.0,ka
0.0,46.0,125.0,90.0,102.0,64.0,90.0,132.0,-0.26,0.94,0.09,-1.0,2.0,0.0,ka
0.0,48.0,125.0,90.0,99.0,66.0,93.0,132.0,-0.26,0.94,0.09,-1.0,1.0,0.0,ka
0.0,48.0,125.0,90.0,96.0,66.0,90.0,132.0,-0.26,0.93,0.09,-2.0,1.0,0.0,ka
0.0,46.0,125.0,90.0,96.0,66.0,90.0,137.0,-0.26,0.94,0.1,-2.0,2.0,0.0,ka
0.0,58.0,125.0,90.0,99.0,66.0,93.0,134.0,-0.26,0.93,0.1,-2.0,2.0,0.0,ka
0.0,58.0,124.0,90.0,96.0,66.0,95.0,132.0,-0.26,0.93,0.1,-2.0,2.0,0.0,ka
0.0,58.0,122.0,94.0,96.0,66.0,90.0,129.0,-0.26,0.94,0.1,-2.0,1.0,1.0,ka
0.0,60.0,122.0,93.0,96.0,66.0,76.0,122.0,-0.26,0.94,0.1,-2.0,2.0,0.0,ka
0.0,60.0,122.0,93.0,96.0,64.0,73.0,124.0,-0.26,0.94,0.09,-2.0,2.0,1.0,ka
0.0,62.0,122.0,93.0,99.0,60.0,78.0,127.0,-0.26,0.94,0.09,-2.0,2.0,0.0,ka
0.0,62.0,122.0,93.0,99.0,60.0,73.0,122.0,-0.26,0.94,0.09,-2.0,2.0,0.0,ka
0.0,62.0,121.0,93.0,99.0,60.0,73.0,124.0,-0.25,0.93,0.09,-2.0,2.0,0.0,ka
0.0,62.0,122.0,93.0,99.0,58.0,81.0,124.0,-0.25,0.94,0.1,-1.0,2.0,0.0,ka
0.0,62.0,121.0,93.0,96.0,60.0,81.0,132.0,-0.25,0.94,0.09,-1.0,2.0,0.0,ka
0.0,52.0,122.0,93.0,99.0,60.0,83.0,132.0,-0.25,0.94,0.09,-1.0,2.0,0.0,ka
0.0,52.0,122.0,93.0,99.0,60.0,83.0,129.0,-0.25,0.94,0.09,0.0,3.0,0.0,ka
0.0,52.0,122.0,93.0,99.0,60.0,85.0,129.0,-0.25,0.93,0.09,-1.0,3.0,-1.0,ka
0.0,50.0,121.0,93.0,99.0,60.0,90.0,132.0,-0.26,0.93,0.09,-1.0,3.0,-1.0,ka
0.0,48.0,122.0,93.0,99.0,60.0,95.0,132.0,-0.26,0.93,0.09,-1.0,3.0,-1.0,ka
0.0,46.0,122.0,94.0,99.0,60.0,90.0,134.0,-0.26,0.94,0.09,-1.0,3.0,-1.0,ka
0.0,36.0,122.0,94.0,96.0,61.0,90.0,132.0,-0.26,0.93,0.09,-1.0,3.0,-1.0,ka
0.0,38.0,121.0,95.0,99.0,61.0,93.0,134.0,-0.26,0.94,0.09,-1.0,3.0,-1.0,ka
0.0,34.0,121.0,95.0,99.0,61.0,90.0,132.0,-0.26,0.94,0.09,-1.0,2.0,0.0,ka
0.0,34.0,121.0,95.0,99.0,61.0,93.0,132.0,-0.26,0.94,0.09,-2.0,2.0,0.0,ka
0.0,34.0,122.0,95.0,96.0,61.0,114.0,132.0,-0.26,0.94,0.09,-1.0,2.0,0.0,ka
0.0,34.0,121.0,95.0,96.0,61.0,109.0,134.0,-0.26,0.94,0.09,-2.0,2.0,0.0,ka
0.0,34.0,121.0,95.0,96.0,61.0,109.0,134.0,-0.26,0.94,0.1,-2.0,2.0,0.0,ka
0.0,34.0,122.0,95.0,96.0,61.0,105.0,132.0,-0.26,0.94,0.1,-1.0,2.0,0.0,ka
0.0,40.0,121.0,95.0,93.0,63.0,97.0,132.0,-0.26,0.94,0.1,-2.0,2.0,0.0,ka
0.0,38.0,122.0,95.0,81.0,64.0,102.0,129.0,-0.26,0.94,0.1,-1.0,2.0,0.0,ka
0.0,48.0,123.0,94.0,81.0,64.0,100.0,129.0,-0.26,0.94,0.1,-2.0,2.0,0.0,ka
0.0,48.0,123.0,93.0,81.0,64.0,105.0,132.0,-0.26,0.94,0.1,-1.0,2.0,0.0,ka
0.0,46.0,123.0,93.0,81.0,64.0,105.0,132.0,-0.26,0.94,0.1,-1.0,2.0,0.0,ka
0.0,46.0,123.0,93.0,81.0,64.0,105.0,132.0,-0.26,0.94,0.1,0.0,2.0,0.0,ka
0.0,44.0,123.0,93.0,78.0,66.0,83.0,129.0,-0.26,0.94,0.09,-1.0,2.0,0.0,ka
0.0,44.0,123.0,93.0,81.0,64.0,88.0,129.0,-0.26,0.94,0.09,-1.0,2.0,0.0,ka
0.0,44.0,123.0,93.0,81.0,64.0,85.0,129.0,-0.26,0.94,0.09,-1.0,2.0,0.0,ka
0.0,46.0,123.0,93.0,87.0,63.0,85.0,129.0,-0.26,0.94,0.09,-1.0,2.0,-1.0,ka
0.0,44.0,124.0,93.0,90.0,61.0,93.0,132.0,-0.26,0.94,0.09,-1.0,2.0,-1.0,ka
0.0,44.0,122.0,93.0,99.0,61.0,93.0,132.0,-0.26,0.94,0.09,-2.0,2.0,-1.0,ka
0.0,42.0,122.0,93.0,99.0,61.0,90.0,132.0,-0.26,0.94,0.09,-1.0,2.0,0.0,ka
0.0,42.0,122.0,93.0,99.0,61.0,85.0,132.0,-0.26,0.93,0.09,-2.0,2.0,-1.0,ka
0.0,44.0,121.0,94.0,99.0,61.0,85.0,129.0,-0.26,0.94,0.09,-2.0,2.0,-1.0,ka
0.0,42.0,121.0,95.0,96.0,61.0,95.0,127.0,-0.26,0.94,0.09,-2.0,2.0,-1.0,ka
0.0,40.0,121.0,94.0,102.0,60.0,95.0,127.0,-0.26,0.94,0.09,-2.0,2.0,0.0,ka
0.0,42.0,121.0,94.0,102.0,60.0,93.0,127.0,-0.26,0.94,0.09,-2.0,2.0,-1.0,ka
0.0,42.0,122.0,95.0,99.0,60.0,100.0,127.0,-0.26,0.93,0.09,-1.0,2.0,0.0,ka
0.0,40.0,123.0,95.0,99.0,61.0,100.0,129.0,-0.26,0.94,0.09,-2.0,1.0,0.0,ka
0.0,40.0,123.0,95.0,99.0,61.0,95.0,129.0,-0.25,0.94,0.09,-2.0,2.0,-1.0,ka
0.0,42.0,122.0,95.0,99.0,60.0,90.0,129.0,-0.25,0.94,0.09,-2.0,1.0,-1.0,ka
0.0,42.0,123.0,95.0,102.0,60.0,95.0,129.0,-0.25,0.94,0.09,-2.0,1.0,-1.0,ka
0.0,42.0,123.0,95.0,102.0,60.0,95.0,129.0,-0.26,0.94,0.09,-2.0,1.0,-1.0,ka
0.0,44.0,123.0,94.0,105.0,60.0,90.0,129.0,-0.25,0.94,0.1,-2.0,1.0,-1.0,ka
0.0,44.0,124.0,95.0,102.0,60.0,78.0,129.0,-0.26,0.93,0.1,-2.0,2.0,-1.0,ka
0.0,48.0,124.0,95.0,102.0,60.0,76.0,132.0,-0.26,0.94,0.1,-1.0,2.0,0.0,ka
0.0,48.0,123.0,95.0,99.0,60.0,73.0,129.0,-0.26,0.94,0.1,0.0,2.0,0.0,ka
0.0,48.0,123.0,95.0,99.0,60.0,69.0,127.0,-0.26,0.93,0.09,-1.0,3.0,0.0,ka
0.0,50.0,122.0,94.0,99.0,60.0,59.0,127.0,-0.26,0.93,0.1,0.0,3.0,0.0,ka
0.0,48.0,123.0,94.0,96.0,60.0,59.0,127.0,-0.26,0.93,0.09,0.0,3.0,0.0,ka
0.0,48.0,123.0,95.0,93.0,61.0,57.0,124.0,-0.27,0.93,0.09,0.0,4.0,0.0,ka
0.0,48.0,122.0,96.0,90.0,61.0,52.0,122.0,-0.26,0.93,0.09,0.0,5.0,0.0,ka
0.0,48.0,122.0,95.0,90.0,61.0,50.0,122.0,-0.26,0.93,0.08,0.0,4.0,0.0,ka
0.0,48.0,122.0,96.0,90.0,60.0,52.0,124.0,-0.27,0.93,0.08,0.0,4.0,0.0,ka
0.0,48.0,122.0,95.0,90.0,60.0,50.0,124.0,-0.26,0.93,0.08,0.0,4.0,0.0,ka
0.0,50.0,122.0,95.0,93.0,60.0,50.0,127.0,-0.26,0.93,0.08,-1.0,4.0,0.0,ka
0.0,48.0,122.0,94.0,90.0,60.0,47.0,124.0,-0.27,0.93,0.08,-1.0,4.0,0.0,ka
0.0,50.0,122.0,92.0,90.0,60.0,45.0,127.0,-0.26,0.93,0.08,-1.0,4.0,0.0,ka
0.0,46.0,120.0,93.0,93.0,60.0,50.0,129.0,-0.27,0.93,0.08,-2.0,4.0,0.0,ka
0.0,48.0,120.0,92.0,93.0,60.0,47.0,127.0,-0.27,0.93,0.08,-2.0,3.0,0.0,ka
0.0,44.0,120.0,92.0,96.0,60.0,50.0,129.0,-0.27,0.93,0.08,-2.0,4.0,0.0,ka
0.0,44.0,120.0,92.0,96.0,60.0,47.0,127.0,-0.27,0.94,0.08,-2.0,3.0,0.0,ka
0.0,44.0,120.0,92.0,99.0,60.0,50.0,127.0,-0.27,0.94,0.08,-1.0,4.0,0.0,ka
0.0,44.0,120.0,90.0,99.0,60.0,50.0,127.0,-0.27,0.93,0.08,-1.0,3.0,0.0,ka
0.0,44.0,120.0,89.0,102.0,60.0,50.0,124.0,-0.27,0.93,0.08,-1.0,3.0,0.0,ka
0.0,44.0,120.0,92.0,102.0,60.0,47.0,124.0,-0.27,0.94,0.08,-2.0,3.0,0.0,ka
0.0,44.0,120.0,92.0,99.0,60.0,50.0,122.0,-0.27,0.94,0.08,-1.0,3.0,0.0,ka
0.0,42.0,120.0,91.0,105.0,60.0,50.0,122.0,-0.27,0.94,0.08,-2.0,3.0,0.0,ka
0.0,44.0,122.0,91.0,105.0,60.0,50.0,122.0,-0.26,0.94,0.08,-2.0,3.0,0.0,ka
0.0,44.0,122.0,92.0,105.0,58.0,47.0,122.0,-0.27,0.94,0.08,-2.0,3.0,0.0,ka
0.0,44.0,122.0,92.0,102.0,58.0,45.0,122.0,-0.26,0.94,0.08,-2.0,3.0,0.0,ka
0.0,48.0,122.0,90.0,105.0,58.0,45.0,122.0,-0.26,0.94,0.08,-2.0,2.0,0.0,ka
0.0,48.0,122.0,90.0,105.0,55.0,45.0,122.0,-0.26,0.94,0.08,-2.0,2.0,0.0,ka
0.0,46.0,122.0,91.0,102.0,57.0,40.0,122.0,-0.26,0.94,0.08,-2.0,2.0,0.0,ka
0.0,46.0,122.0,91.0,99.0,57.0,38.0,119.0,-0.26,0.94,0.08,-2.0,2.0,0.0,ka
0.0,44.0,122.0,90.0,99.0,57.0,40.0,119.0,-0.26,0.94,0.08,-2.0,2.0,0.0,ka
0.0,48.0,121.0,89.0,102.0,57.0,38.0,122.0,-0.26,0.94,0.08,-2.0,2.0,0.0,ka
0.0,48.0,121.0,89.0,99.0,55.0,38.0,122.0,-0.26,0.94,0.08,-2.0,2.0,0.0,ka
0.0,48.0,122.0,89.0,99.0,55.0,35.0,119.0,-0.26,0.94,0.08,-2.0,2.0,0.0,ka
0.0,48.0,121.0,88.0,99.0,55.0,38.0,122.0,-0.26,0.94,0.08,-2.0,2.0,0.0,ka
0.0,48.0,121.0,88.0,102.0,55.0,42.0,119.0,-0.26,0.94,0.08,-2.0,2.0,0.0,ka
0.0,48.0,121.0,88.0,99.0,55.0,47.0,122.0,-0.26,0.94,0.08,-2.0,2.0,0.0,ka
0.0,46.0,122.0,87.0,96.0,58.0,42.0,122.0,-0.26,0.93,0.08,-2.0,2.0,0.0,ka
0.0,46.0,122.0,87.0,99.0,57.0,45.0,124.0,-0.26,0.93,0.08,-2.0,2.0,0.0,ka
0.0,44.0,122.0,87.0,96.0,57.0,45.0,124.0,-0.26,0.94,0.08,-2.0,2.0,0.0,ka
0.0,48.0,122.0,87.0,96.0,57.0,47.0,124.0,-0.26,0.94,0.08,-2.0,2.0,0.0,ka
0.0,46.0,122.0,88.0,96.0,57.0,47.0,124.0,-0.26,0.94,0.09,-3.0,2.0,0.0,ka
0.0,44.0,122.0,88.0,93.0,58.0,52.0,122.0,-0.26,0.94,0.09,-3.0,2.0,0.0,ka
0.0,44.0,121.0,88.0,96.0,58.0,54.0,124.0,-0.26,0.94,0.09,-3.0,2.0,1.0,ka
0.0,44.0,122.0,89.0,96.0,60.0,52.0,119.0,-0.26,0.94,0.09,-2.0,1.0,1.0,ka
0.0,44.0,122.0,89.0,96.0,58.0,50.0,124.0,-0.26,0.94,0.09,-2.0,1.0,1.0,ka
0.0,48.0,122.0,89.0,96.0,58.0,54.0,124.0,-0.25,0.94,0.09,-2.0,1.0,1.0,ka
0.0,46.0,121.0,89.0,93.0,58.0,57.0,119.0,-0.25,0.94,0.09,-2.0,1.0,1.0,ka
0.0,48.0,121.0,89.0,93.0,58.0,45.0,117.0,-0.25,0.94,0.09,-2.0,1.0,1.0,ka
0.0,48.0,120.0,87.0,90.0,58.0,45.0,117.0,-0.25,0.94,0.09,-2.0,1.0,1.0,ka
0.0,48.0,119.0,87.0,93.0,58.0,45.0,117.0,-0.25,0.94,0.1,-2.0,1.0,1.0,ka
0.0,48.0,120.0,87.0,93.0,58.0,47.0,117.0,-0.25,0.94,0.1,-2.0,1.0,0.0,ka
0.0,48.0,120.0,87.0,90.0,58.0,47.0,117.0,-0.25,0.94,0.09,-2.0,1.0,0.0,ka
0.0,48.0,118.0,87.0,90.0,58.0,52.0,117.0,-0.25,0.94,0.09,-2.0,1.0,0.0,ka
0.0,48.0,117.0,87.0,90.0,58.0,54.0,122.0,-0.25,0.94,0.1,-3.0,1.0,0.0,ka
0.0,48.0,117.0,87.0,90.0,58.0,54.0,119.0,-0.25,0.94,0.1,-3.0,1.0,0.0,ka
0.0,38.0,117.0,87.0,90.0,57.0,52.0,117.0,-0.25,0.94,0.1,-3.0,1.0,-1.0,ka
0.0,40.0,117.0,87.0,96.0,57.0,52.0,124.0,-0.25,0.94,0.1,-3.0,1.0,-1.0,ka
0.0,42.0,117.0,87.0,93.0,57.0,64.0,129.0,-0.25,0.94,0.1,-3.0,1.0,-1.0,ka
0.0,42.0,118.0,88.0,96.0,58.0,69.0,129.0,-0.25,0.94,0.1,-2.0,1.0,0.0,ka
0.0,42.0,118.0,87.0,93.0,58.0,73.0,134.0,-0.25,0.94,0.1,-2.0,1.0,0.0,ka
0.0,40.0,118.0,87.0,90.0,58.0,73.0,137.0,-0.25,0.94,0.1,-2.0,1.0,0.0,ka
0.0,42.0,117.0,88.0,93.0,57.0,71.0,139.0,-0.25,0.94,0.11,-2.0,1.0,0.0,ka
0.0,42.0,120.0,88.0,87.0,58.0,69.0,137.0,-0.25,0.94,0.11,0.0,1.0,0.0,ka
0.0,38.0,121.0,88.0,90.0,58.0,69.0,134.0,-0.25,0.93,0.11,0.0,1.0,0.0,ka
0.0,36.0,120.0,89.0,90.0,58.0,71.0,134.0,-0.25,0.94,0.1,0.0,1.0,0.0,ka
0.0,42.0,120.0,88.0,87.0,58.0,71.0,134.0,-0.25,0.94,0.1,0.0,1.0,0.0,ka
0.0,44.0,120.0,88.0,90.0,58.0,73.0,137.0,-0.25,0.93,0.1,0.0,1.0,0.0,ka
0.0,42.0,120.0,87.0,90.0,58.0,73.0,132.0,-0.25,0.93,0.1,0.0,1.0,0.0,ka
0.0,42.0,120.0,86.0,93.0,58.0,69.0,132.0,-0.25,0.93,0.1,0.0,1.0,0.0,ka
0.0,42.0,120.0,87.0,96.0,60.0,66.0,132.0,-0.25,0.94,0.1,0.0,1.0,0.0,ka
0.0,46.0,120.0,87.0,99.0,60.0,66.0,132.0,-0.25,0.94,0.1,0.0,1.0,0.0,ka
0.0,46.0,120.0,86.0,102.0,60.0,69.0,134.0,-0.25,0.94,0.09,0.0,1.0,0.0,ka
0.0,46.0,121.0,86.0,105.0,60.0,69.0,132.0,-0.25,0.94,0.09,0.0,2.0,0.0,ka
0.0,52.0,122.0,87.0,105.0,60.0,71.0,134.0,-0.25,0.94,0.09,0.0,2.0,0.0,ka
0.0,52.0,123.0,87.0,105.0,60.0,71.0,134.0,-0.25,0.94,0.09,0.0,2.0,0.0,ka
0.0,62.0,122.0,86.0,102.0,60.0,66.0,137.0,-0.25,0.94,0.09,0.0,2.0,0.0,ka
0.0,58.0,122.0,86.0,99.0,60.0,69.0,134.0,-0.25,0.94,0.09,0.0,2.0,0.0,ka
0.0,58.0,122.0,86.0,99.0,58.0,66.0,137.0,-0.25,0.94,0.09,0.0,2.0,0.0,ka
0.0,58.0,122.0,87.0,102.0,58.0,66.0,134.0,-0.25,0.94,0.09,-1.0,2.0,0.0,ka
0.0,56.0,122.0,87.0,102.0,57.0,64.0,132.0,-0.25,0.94,0.09,-1.0,2.0,0.0,ka
0.0,58.0,122.0,87.0,99.0,58.0,59.0,127.0,-0.25,0.94,0.09,-1.0,2.0,0.0,ka
0.0,52.0,122.0,87.0,96.0,58.0,57.0,127.0,-0.25,0.94,0.09,-1.0,2.0,0.0,ka
0.0,52.0,122.0,87.0,96.0,58.0,62.0,129.0,-0.25,0.94,0.09,-2.0,2.0,0.0,ka
0.0,50.0,120.0,88.0,96.0,58.0,59.0,127.0,-0.25,0.94,0.09,0.0,2.0,0.0,ka
0.0,50.0,120.0,88.0,96.0,58.0,57.0,122.0,-0.25,0.94,0.09,-1.0,2.0,0.0,ka
0.0,42.0,120.0,89.0,96.0,58.0,57.0,124.0,-0.25,0.94,0.09,-1.0,2.0,0.0,ka
0.0,40.0,120.0,89.0,93.0,58.0,54.0,122.0,-0.25,0.94,0.09,-1.0,2.0,0.0,ka
0.0,42.0,120.0,89.0,90.0,58.0,54.0,122.0,-0.25,0.94,0.09,-1.0,2.0,0.0,ka
0.0,40.0,121.0,89.0,87.0,60.0,57.0,124.0,-0.25,0.95,0.09,-1.0,2.0,0.0,ka
0.0,38.0,120.0,89.0,84.0,60.0,54.0,122.0,-0.25,0.94,0.09,-1.0,2.0,0.0,ka
0.0,36.0,120.0,89.0,84.0,60.0,62.0,124.0,-0.25,0.94,0.09,-1.0,2.0,0.0,ka
0.0,40.0,120.0,88.0,84.0,60.0,59.0,122.0,-0.24,0.94,0.09,-1.0,2.0,0.0,ka
0.0,40.0,120.0,88.0,84.0,60.0,57.0,122.0,-0.25,0.94,0.09,-1.0,2.0,-1.0,ka
0.0,40.0,120.0,87.0,87.0,60.0,57.0,124.0,-0.25,0.94,0.09,-2.0,3.0,-1.0,ka
0.0,42.0,119.0,87.0,87.0,58.0,57.0,127.0,-0.25,0.94,0.09,-2.0,3.0,-1.0,ka
0.0,40.0,119.0,88.0,90.0,58.0,54.0,127.0,-0.25,0.94,0.09,-1.0,3.0,-1.0,ka
0.0,42.0,119.0,88.0,84.0,58.0,50.0,127.0,-0.25,0.94,0.09,-1.0,3.0,-1.0,ka
0.0,42.0,119.0,88.0,90.0,58.0,50.0,127.0,-0.25,0.94,0.09,-1.0,3.0,0.0,ka
0.0,44.0,119.0,88.0,90.0,58.0,50.0,124.0,-0.25,0.94,0.09,-1.0,3.0,0.0,ka
14.0,46.0,154.0,133.0,375.0,180.0,2.0,371.0,-0.25,0.92,0.13,3.0,-2.0,0.0,ka
14.0,48.0,152.0,130.0,348.0,168.0,0.0,348.0,-0.25,0.93,0.13,1.0,-2.0,0.0,ka
14.0,48.0,150.0,125.0,321.0,156.0,7.0,323.0,-0.24,0.93,0.13,1.0,-2.0,-1.0,ka
14.0,48.0,147.0,120.0,285.0,140.0,9.0,300.0,-0.24,0.93,0.13,1.0,-2.0,-2.0,ka
12.0,48.0,144.0,116.0,258.0,126.0,14.0,274.0,-0.24,0.93,0.13,0.0,-2.0,-3.0,ka
10.0,52.0,142.0,111.0,234.0,116.0,16.0,254.0,-0.24,0.93,0.13,0.0,-2.0,-3.0,ka
8.0,54.0,139.0,106.0,204.0,102.0,26.0,229.0,-0.25,0.93,0.13,-2.0,-2.0,-3.0,ka
10.0,52.0,137.0,102.0,177.0,92.0,28.0,206.0,-0.25,0.93,0.13,-2.0,0.0,-3.0,ka
6.0,54.0,132.0,98.0,147.0,76.0,31.0,178.0,-0.26,0.92,0.13,0.0,0.0,-3.0,ka
6.0,54.0,129.0,94.0,126.0,66.0,33.0,157.0,-0.26,0.93,0.12,0.0,1.0,-4.0,ka
6.0,52.0,129.0,93.0,123.0,67.0,26.0,155.0,-0.26,0.93,0.12,1.0,2.0,-4.0,ka
2.0,54.0,128.0,92.0,120.0,66.0,26.0,155.0,-0.26,0.93,0.12,1.0,3.0,-4.0,ka
6.0,48.0,128.0,92.0,117.0,66.0,28.0,157.0,-0.26,0.93,0.12,2.0,3.0,-3.0,ka
4.0,50.0,127.0,92.0,120.0,64.0,28.0,157.0,-0.27,0.94,0.12,2.0,5.0,-3.0,ka
4.0,50.0,126.0,92.0,120.0,64.0,26.0,155.0,-0.27,0.94,0.11,2.0,5.0,-3.0,ka
6.0,48.0,125.0,92.0,120.0,61.0,28.0,155.0,-0.27,0.94,0.11,3.0,5.0,-3.0,ka
8.0,46.0,125.0,92.0,117.0,61.0,26.0,155.0,-0.28,0.95,0.1,3.0,4.0,-2.0,ka
6.0,46.0,125.0,92.0,117.0,60.0,14.0,152.0,-0.27,0.94,0.1,3.0,3.0,-1.0,ka
6.0,48.0,125.0,92.0,120.0,60.0,14.0,155.0,-0.27,0.95,0.1,2.0,3.0,0.0,ka
10.0,46.0,125.0,92.0,117.0,60.0,14.0,152.0,-0.27,0.95,0.1,1.0,3.0,0.0,ka
6.0,48.0,125.0,92.0,117.0,60.0,16.0,152.0,-0.27,0.94,0.09,0.0,2.0,1.0,ka
10.0,44.0,125.0,92.0,120.0,58.0,21.0,152.0,-0.26,0.94,0.09,0.0,2.0,1.0,ka
4.0,48.0,125.0,91.0,123.0,58.0,19.0,147.0,-0.26,0.94,0.09,-1.0,2.0,0.0,ka
2.0,48.0,125.0,90.0,123.0,58.0,21.0,147.0,-0.26,0.94,0.09,-2.0,1.0,1.0,ka
4.0,46.0,125.0,90.0,117.0,60.0,21.0,150.0,-0.26,0.94,0.09,-2.0,1.0,1.0,ka
2.0,46.0,125.0,90.0,117.0,61.0,21.0,152.0,-0.26,0.94,0.09,-3.0,2.0,1.0,ka
4.0,46.0,125.0,89.0,120.0,61.0,21.0,150.0,-0.25,0.94,0.09,-3.0,2.0,0.0,ka
2.0,46.0,124.0,89.0,120.0,61.0,35.0,147.0,-0.26,0.94,0.09,-3.0,3.0,0.0,ka
0.0,48.0,124.0,88.0,120.0,61.0,35.0,147.0,-0.26,0.94,0.09,-2.0,2.0,0.0,ka
0.0,48.0,123.0,88.0,123.0,61.0,35.0,150.0,-0.25,0.93,0.1,-2.0,1.0,0.0,ka
0.0,48.0,123.0,89.0,123.0,61.0,38.0,150.0,-0.25,0.94,0.1,-2.0,1.0,0.0,ka
0.0,48.0,123.0,89.0,117.0,61.0,38.0,150.0,-0.26,0.93,0.1,-2.0,1.0,0.0,ka
0.0,48.0,122.0,89.0,117.0,61.0,35.0,150.0,-0.26,0.94,0.1,-2.0,1.0,0.0,ka
0.0,48.0,122.0,89.0,117.0,63.0,38.0,150.0,-0.26,0.93,0.1,-2.0,1.0,0.0,ka
0.0,48.0,122.0,89.0,117.0,63.0,38.0,147.0,-0.26,0.93,0.1,-2.0,1.0,0.0,ka
0.0,46.0,123.0,89.0,114.0,63.0,40.0,142.0,-0.26,0.93,0.11,-1.0,1.0,0.0,ka
0.0,46.0,123.0,90.0,114.0,63.0,62.0,145.0,-0.26,0.93,0.11,0.0,1.0,0.0,ka
0.0,46.0,123.0,90.0,108.0,61.0,62.0,147.0,-0.26,0.93,0.11,0.0,1.0,0.0,ka
0.0,44.0,123.0,91.0,105.0,61.0,62.0,147.0,-0.26,0.93,0.1,0.0,1.0,0.0,ka
0.0,44.0,123.0,91.0,105.0,61.0,59.0,145.0,-0.26,0.94,0.1,0.0,1.0,0.0,ka
0.0,44.0,124.0,91.0,105.0,61.0,62.0,145.0,-0.26,0.94,0.1,0.0,1.0,0.0,ka
0.0,44.0,124.0,90.0,108.0,60.0,64.0,145.0,-0.26,0.94,0.1,0.0,1.0,0.0,ka
0.0,44.0,124.0,91.0,108.0,60.0,69.0,147.0,-0.26,0.94,0.1,0.0,1.0,0.0,ka
0.0,46.0,124.0,91.0,108.0,60.0,66.0,147.0,-0.26,0.94,0.1,0.0,1.0,0.0,ka
0.0,46.0,123.0,90.0,114.0,58.0,71.0,147.0,-0.26,0.94,0.1,-1.0,1.0,0.0,ka
0.0,48.0,123.0,89.0,114.0,60.0,66.0,152.0,-0.26,0.94,0.1,-1.0,1.0,0.0,ka
0.0,48.0,123.0,89.0,114.0,60.0,47.0,152.0,-0.26,0.94,0.1,-2.0,2.0,0.0,ka
0.0,48.0,123.0,88.0,114.0,60.0,45.0,152.0,-0.26,0.94,0.1,-2.0,1.0,-1.0,ka
0.0,46.0,123.0,89.0,114.0,58.0,45.0,152.0,-0.26,0.94,0.1,-4.0,1.0,-2.0,ka
0.0,46.0,123.0,87.0,114.0,58.0,52.0,155.0,-0.26,0.94,0.11,-5.0,1.0,-3.0,ka
0.0,44.0,123.0,87.0,114.0,58.0,52.0,152.0,-0.26,0.93,0.12,-6.0,1.0,-3.0,ka
0.0,46.0,123.0,87.0,114.0,58.0,50.0,152.0,-0.26,0.93,0.12,-6.0,0.0,-4.0,ka
2.0,44.0,123.0,87.0,114.0,58.0,45.0,150.0,-0.26,0.93,0.12,-6.0,0.0,-4.0,ka
0.0,44.0,123.0,88.0,114.0,58.0,47.0,147.0,-0.27,0.93,0.13,-7.0,0.0,-5.0,ka
0.0,42.0,123.0,89.0,120.0,58.0,45.0,145.0,-0.27,0.93,0.13,-7.0,0.0,-6.0,ka
2.0,44.0,123.0,89.0,126.0,58.0,47.0,145.0,-0.28,0.92,0.14,-7.0,0.0,-6.0,ka
0.0,44.0,122.0,90.0,126.0,58.0,47.0,142.0,-0.28,0.92,0.14,-8.0,0.0,-7.0,ka
2.0,44.0,122.0,90.0,126.0,58.0,45.0,139.0,-0.29,0.91,0.15,-7.0,0.0,-7.0,ka
0.0,44.0,122.0,89.0,129.0,58.0,50.0,139.0,-0.29,0.91,0.16,-6.0,0.0,-7.0,ka
2.0,44.0,122.0,91.0,129.0,58.0,45.0,137.0,-0.3,0.91,0.16,-5.0,1.0,-7.0,ka
0.0,44.0,122.0,91.0,129.0,58.0,50.0,139.0,-0.31,0.91,0.16,-5.0,0.0,-7.0,ka
2.0,44.0,122.0,92.0,126.0,58.0,52.0,137.0,-0.31,0.91,0.17,-4.0,1.0,-7.0,ka
0.0,44.0,123.0,92.0,126.0,58.0,54.0,137.0,-0.32,0.91,0.17,-4.0,1.0,-6.0,ka
0.0,44.0,123.0,92.0,123.0,58.0,52.0,137.0,-0.32,0.9,0.17,-4.0,2.0,-6.0,ka
0.0,42.0,123.0,91.0,111.0,58.0,52.0,137.0,-0.33,0.9,0.17,-3.0,2.0,-6.0,ka
0.0,42.0,123.0,92.0,108.0,60.0,54.0,139.0,-0.33,0.9,0.17,-3.0,2.0,-5.0,ka
0.0,42.0,124.0,92.0,105.0,60.0,59.0,142.0,-0.34,0.9,0.18,-2.0,2.0,-4.0,ka
2.0,36.0,124.0,92.0,102.0,60.0,59.0,139.0,-0.34,0.9,0.18,-2.0,2.0,-4.0,ka
0.0,30.0,124.0,92.0,96.0,60.0,57.0,139.0,-0.34,0.9,0.18,-2.0,2.0,-3.0,ka
2.0,30.0,124.0,92.0,96.0,60.0,62.0,145.0,-0.34,0.9,0.18,0.0,3.0,-2.0,ka
0.0,28.0,124.0,92.0,93.0,60.0,59.0,139.0,-0.34,0.9,0.18,0.0,3.0,-1.0,ka
10.0,28.0,124.0,92.0,96.0,60.0,57.0,142.0,-0.34,0.89,0.17,1.0,3.0,0.0,ka
10.0,28.0,122.0,92.0,93.0,60.0,52.0,139.0,-0.34,0.9,0.17,1.0,4.0,1.0,ka
8.0,32.0,122.0,91.0,96.0,60.0,54.0,142.0,-0.34,0.9,0.17,2.0,4.0,2.0,ka
10.0,34.0,122.0,90.0,99.0,60.0,54.0,145.0,-0.34,0.9,0.16,2.0,5.0,3.0,ka
8.0,32.0,122.0,90.0,96.0,57.0,50.0,145.0,-0.33,0.9,0.16,3.0,5.0,3.0,ka
10.0,32.0,122.0,89.0,96.0,57.0,45.0,142.0,-0.33,0.91,0.16,4.0,6.0,5.0,ka
8.0,40.0,122.0,89.0,99.0,57.0,47.0,147.0,-0.32,0.91,0.15,5.0,6.0,6.0,ka
12.0,46.0,122.0,88.0,105.0,57.0,45.0,147.0,-0.32,0.91,0.14,6.0,7.0,6.0,ka
10.0,48.0,121.0,87.0,105.0,57.0,38.0,147.0,-0.31,0.91,0.13,8.0,7.0,7.0,ka
12.0,46.0,120.0,86.0,105.0,57.0,35.0,147.0,-0.31,0.91,0.12,8.0,7.0,8.0,ka
2.0,46.0,120.0,86.0,102.0,57.0,45.0,147.0,-0.3,0.92,0.11,9.0,7.0,9.0,ka
0.0,48.0,120.0,85.0,102.0,57.0,50.0,147.0,-0.29,0.92,0.1,10.0,8.0,9.0,ka
2.0,44.0,120.0,84.0,102.0,57.0,50.0,147.0,-0.28,0.93,0.09,11.0,6.0,11.0,ka
0.0,42.0,120.0,85.0,102.0,57.0,47.0,147.0,-0.27,0.93,0.07,13.0,7.0,12.0,ka
0.0,40.0,120.0,84.0,102.0,58.0,50.0,145.0,-0.26,0.94,0.06,14.0,7.0,12.0,ka
0.0,40.0,120.0,84.0,105.0,58.0,50.0,145.0,-0.25,0.94,0.04,13.0,6.0,13.0,ka
0.0,36.0,119.0,84.0,102.0,58.0,47.0,142.0,-0.24,0.95,0.03,13.0,6.0,13.0,ka
0.0,38.0,119.0,87.0,105.0,58.0,45.0,134.0,-0.23,0.94,0.01,12.0,6.0,13.0,ka
0.0,38.0,119.0,88.0,108.0,57.0,50.0,134.0,-0.22,0.95,-0.0,10.0,6.0,13.0,ka
0.0,38.0,119.0,88.0,108.0,55.0,47.0,132.0,-0.2,0.96,-0.01,9.0,5.0,12.0,ka
0.0,40.0,119.0,89.0,111.0,55.0,38.0,134.0,-0.19,0.97,-0.02,5.0,5.0,10.0,ka
0.0,38.0,119.0,89.0,111.0,55.0,28.0,134.0,-0.18,0.97,-0.03,2.0,4.0,7.0,ka
0.0,40.0,119.0,91.0,105.0,55.0,26.0,132.0,-0.18,0.96,-0.03,-1.0,4.0,3.0,ka
0.0,42.0,118.0,90.0,108.0,55.0,26.0,134.0,-0.17,0.97,-0.03,-6.0,2.0,0.0,ka
0.0,42.0,118.0,91.0,105.0,55.0,23.0,134.0,-0.18,0.98,-0.02,-9.0,3.0,-4.0,ka
0.0,42.0,118.0,91.0,105.0,55.0,23.0,132.0,-0.18,0.97,-0.01,-11.0,2.0,-7.0,ka
0.0,48.0,118.0,92.0,102.0,55.0,26.0,134.0,-0.18,0.97,-0.0,-10.0,1.0,-9.0,ka
0.0,44.0,118.0,89.0,99.0,55.0,26.0,142.0,-0.19,0.97,0.01,-7.0,0.0,-11.0,ka
0.0,44.0,118.0,88.0,99.0,57.0,28.0,142.0,-0.2,0.96,0.01,-5.0,0.0,-13.0,ka
0.0,44.0,118.0,88.0,99.0,57.0,31.0,142.0,-0.21,0.96,0.02,-2.0,-1.0,-14.0,ka
0.0,42.0,117.0,87.0,96.0,55.0,28.0,142.0,-0.22,0.95,0.02,1.0,-1.0,-13.0,ka
0.0,44.0,117.0,87.0,96.0,52.0,7.0,139.0,-0.24,0.95,0.02,4.0,0.0,-12.0,ka
0.0,42.0,117.0,86.0,96.0,52.0,9.0,137.0,-0.24,0.95,0.02,8.0,0.0,-10.0,ka
0.0,40.0,117.0,85.0,93.0,58.0,11.0,137.0,-0.26,0.94,0.01,12.0,0.0,-9.0,ka
0.0,40.0,118.0,84.0,96.0,58.0,11.0,137.0,-0.26,0.94,-0.01,16.0,-2.0,-7.0,ka
0.0,40.0,118.0,85.0,96.0,54.0,11.0,137.0,-0.27,0.94,-0.02,18.0,-1.0,-5.0,ka
0.0,38.0,119.0,85.0,99.0,52.0,11.0,134.0,-0.27,0.94,-0.04,17.0,-1.0,-5.0,ka
0.0,42.0,119.0,85.0,99.0,54.0,11.0,134.0,-0.28,0.93,-0.06,15.0,-1.0,-5.0,ka
0.0,38.0,119.0,85.0,96.0,54.0,9.0,134.0,-0.28,0.93,-0.07,13.0,-1.0,-5.0,ka
2.0,42.0,118.0,85.0,96.0,52.0,11.0,134.0,-0.29,0.92,-0.09,10.0,-1.0,-4.0,ka
2.0,42.0,119.0,86.0,96.0,54.0,16.0,134.0,-0.29,0.92,-0.09,8.0,0.0,-3.0,ka
4.0,42.0,119.0,86.0,96.0,57.0,45.0,134.0,-0.29,0.92,-0.1,8.0,-1.0,-3.0,ka
2.0,44.0,119.0,85.0,96.0,57.0,42.0,134.0,-0.29,0.93,-0.11,6.0,0.0,-3.0,ka
2.0,44.0,118.0,86.0,96.0,51.0,42.0,134.0,-0.29,0.92,-0.11,4.0,0.0,-3.0,ka
2.0,44.0,117.0,86.0,96.0,51.0,42.0,132.0,-0.3,0.92,-0.11,2.0,0.0,-2.0,ka
4.0,44.0,117.0,85.0,93.0,55.0,42.0,137.0,-0.3,0.92,-0.11,2.0,0.0,-1.0,ka
4.0,46.0,116.0,85.0,93.0,57.0,40.0,137.0,-0.29,0.93,-0.12,-2.0,1.0,0.0,ka
6.0,42.0,116.0,85.0,93.0,57.0,42.0,137.0,-0.3,0.93,-0.11,-6.0,2.0,1.0,ka
6.0,42.0,117.0,84.0,93.0,57.0,40.0,137.0,-0.29,0.93,-0.11,-13.0,2.0,1.0,ka
0.0,42.0,117.0,83.0,99.0,55.0,40.0,137.0,-0.3,0.93,-0.09,-14.0,2.0,1.0,ka
0.0,44.0,117.0,82.0,99.0,57.0,35.0,137.0,-0.29,0.93,-0.08,-17.0,3.0,2.0,ka
0.0,46.0,117.0,82.0,102.0,55.0,33.0,137.0,-0.29,0.94,-0.07,-20.0,3.0,2.0,ka
0.0,50.0,118.0,82.0,99.0,54.0,35.0,137.0,-0.28,0.94,-0.05,-23.0,4.0,3.0,ka
0.0,50.0,118.0,83.0,102.0,54.0,35.0,137.0,-0.28,0.94,-0.03,-27.0,4.0,3.0,ka
0.0,46.0,119.0,83.0,102.0,55.0,33.0,137.0,-0.28,0.94,-0.01,-29.0,4.0,4.0,ka
0.0,44.0,119.0,83.0,99.0,55.0,28.0,134.0,-0.27,0.94,0.01,-31.0,4.0,4.0,ka
0.0,52.0,119.0,83.0,99.0,54.0,28.0,134.0,-0.28,0.92,0.05,-30.0,5.0,4.0,ka
0.0,54.0,119.0,83.0,96.0,54.0,28.0,132.0,-0.27,0.93,0.07,-31.0,4.0,4.0,ka
0.0,56.0,119.0,83.0,99.0,54.0,28.0,134.0,-0.26,0.93,0.1,-25.0,4.0,6.0,ka
0.0,56.0,119.0,86.0,96.0,58.0,28.0,132.0,-0.26,0.93,0.11,-25.0,4.0,7.0,ka
0.0,52.0,119.0,86.0,93.0,58.0,26.0,132.0,-0.25,0.93,0.14,-24.0,4.0,6.0,ka
0.0,50.0,119.0,86.0,93.0,60.0,26.0,134.0,-0.24,0.93,0.16,-24.0,3.0,6.0,ka
0.0,46.0,119.0,86.0,93.0,60.0,23.0,134.0,-0.24,0.92,0.18,-23.0,3.0,6.0,ka
0.0,46.0,119.0,85.0,90.0,60.0,21.0,134.0,-0.23,0.92,0.21,-20.0,2.0,6.0,ka
0.0,50.0,119.0,84.0,90.0,60.0,23.0,137.0,-0.22,0.92,0.22,-18.0,3.0,6.0,ka
0.0,50.0,119.0,86.0,93.0,60.0,23.0,134.0,-0.21,0.92,0.24,-16.0,3.0,6.0,ka
0.0,42.0,120.0,86.0,93.0,58.0,23.0,134.0,-0.2,0.93,0.25,-16.0,2.0,5.0,ka
0.0,42.0,120.0,85.0,96.0,58.0,21.0,134.0,-0.19,0.92,0.26,-14.0,1.0,4.0,ka
0.0,42.0,120.0,86.0,96.0,58.0,21.0,134.0,-0.19,0.91,0.27,-16.0,1.0,3.0,ka
0.0,42.0,120.0,86.0,96.0,55.0,19.0,134.0,-0.19,0.91,0.29,-14.0,1.0,1.0,ka
0.0,42.0,120.0,86.0,99.0,55.0,19.0,134.0,-0.19,0.91,0.3,-12.0,1.0,1.0,ka
0.0,42.0,120.0,86.0,99.0,55.0,23.0,134.0,-0.18,0.9,0.31,-8.0,1.0,0.0,ka
0.0,42.0,120.0,85.0,102.0,55.0,11.0,134.0,-0.18,0.9,0.31,-2.0,2.0,0.0,ka
0.0,42.0,121.0,86.0,102.0,55.0,11.0,134.0,-0.19,0.9,0.31,1.0,2.0,0.0,ka
0.0,42.0,120.0,85.0,102.0,57.0,14.0,132.0,-0.19,0.9,0.3,4.0,2.0,0.0,ka
0.0,40.0,120.0,83.0,99.0,57.0,14.0,134.0,-0.19,0.9,0.3,6.0,2.0,-2.0,ka
0.0,54.0,120.0,83.0,96.0,57.0,16.0,134.0,-0.19,0.9,0.29,9.0,1.0,-2.0,ka
0.0,54.0,119.0,82.0,99.0,57.0,14.0,134.0,-0.19,0.91,0.28,12.0,1.0,-3.0,ka
0.0,54.0,119.0,82.0,96.0,54.0,23.0,134.0,-0.19,0.91,0.26,13.0,2.0,-4.0,ka
0.0,54.0,118.0,82.0,93.0,54.0,21.0,132.0,-0.19,0.93,0.25,10.0,2.0,-5.0,ka
0.0,56.0,117.0,81.0,96.0,54.0,19.0,129.0,-0.2,0.93,0.23,4.0,1.0,-6.0,ka
0.0,56.0,116.0,81.0,96.0,54.0,21.0,129.0,-0.21,0.93,0.23,-1.0,1.0,-6.0,ka
0.0,54.0,116.0,81.0,90.0,54.0,28.0,127.0,-0.21,0.93,0.24,-9.0,0.0,-7.0,ka
0.0,52.0,116.0,81.0,90.0,54.0,33.0,127.0,-0.21,0.93,0.24,-15.0,-2.0,-9.0,ka
0.0,52.0,116.0,81.0,90.0,54.0,31.0,129.0,-0.22,0.92,0.26,-24.0,-3.0,-12.0,ka
0.0,54.0,117.0,81.0,93.0,52.0,33.0,129.0,-0.23,0.92,0.28,-27.0,-2.0,-14.0,ka
0.0,38.0,117.0,81.0,93.0,52.0,31.0,129.0,-0.24,0.9,0.31,-29.0,0.0,-15.0,ka
0.0,38.0,117.0,80.0,93.0,52.0,31.0,127.0,-0.25,0.9,0.34,-30.0,1.0,-16.0,ka
0.0,38.0,117.0,80.0,96.0,55.0,28.0,129.0,-0.27,0.88,0.36,-26.0,3.0,-16.0,ka
0.0,38.0,118.0,79.0,96.0,55.0,23.0,129.0,-0.28,0.86,0.38,-22.0,3.0,-17.0,ka
0.0,40.0,120.0,80.0,90.0,55.0,28.0,129.0,-0.29,0.85,0.4,-13.0,5.0,-18.0,ka
0.0,40.0,119.0,80.0,90.0,55.0,23.0,127.0,-0.31,0.85,0.4,-7.0,5.0,-20.0,ka
0.0,40.0,119.0,81.0,90.0,55.0,28.0,127.0,-0.33,0.84,0.4,4.0,8.0,-20.0,ka
0.0,42.0,119.0,81.0,87.0,55.0,23.0,124.0,-0.36,0.83,0.39,11.0,9.0,-19.0,ka
0.0,44.0,119.0,82.0,90.0,55.0,23.0,127.0,-0.37,0.83,0.38,24.0,10.0,-14.0,ka
0.0,42.0,119.0,83.0,87.0,57.0,23.0,124.0,-0.38,0.83,0.35,33.0,9.0,-10.0,ka
0.0,44.0,118.0,84.0,87.0,58.0,28.0,124.0,-0.39,0.84,0.32,39.0,8.0,-6.0,ka
0.0,42.0,118.0,84.0,84.0,58.0,31.0,127.0,-0.4,0.85,0.28,41.0,7.0,-3.0,ka
0.0,42.0,117.0,84.0,78.0,58.0,26.0,124.0,-0.4,0.87,0.24,43.0,5.0,2.0,ka
0.0,44.0,117.0,85.0,81.0,58.0,38.0,127.0,-0.4,0.87,0.21,44.0,3.0,7.0,ka
0.0,40.0,116.0,84.0,78.0,58.0,33.0,129.0,-0.39,0.89,0.16,42.0,2.0,12.0,ka
0.0,42.0,116.0,85.0,78.0,58.0,40.0,129.0,-0.37,0.9,0.13,40.0,0.0,17.0,ka
0.0,42.0,116.0,84.0,78.0,58.0,35.0,129.0,-0.34,0.91,0.09,34.0,-3.0,21.0,ka
0.0,42.0,115.0,84.0,84.0,58.0,33.0,129.0,-0.32,0.93,0.06,28.0,-6.0,23.0,ka
0.0,42.0,115.0,83.0,81.0,58.0,35.0,129.0,-0.3,0.94,0.04,19.0,-7.0,23.0,ka
0.0,42.0,114.0,83.0,78.0,58.0,28.0,127.0,-0.29,0.96,0.02,9.0,-9.0,23.0,ka
0.0,40.0,115.0,82.0,78.0,55.0,28.0,129.0,-0.26,0.95,0.02,-1.0,-9.0,23.0,ka
0.0,40.0,116.0,83.0,78.0,55.0,28.0,127.0,-0.23,0.97,0.03,-9.0,-11.0,22.0,ka
0.0,40.0,116.0,83.0,84.0,55.0,28.0,127.0,-0.21,0.98,0.04,-16.0,-11.0,20.0,ka
0.0,40.0,116.0,83.0,81.0,55.0,23.0,124.0,-0.19,0.98,0.06,-29.0,-11.0,15.0,ka
0.0,40.0,117.0,83.0,84.0,55.0,23.0,119.0,-0.18,0.97,0.1,-36.0,-10.0,11.0,ka
0.0,38.0,117.0,82.0,84.0,55.0,21.0,117.0,-0.17,0.96,0.13,-44.0,-5.0,6.0,ka
0.0,40.0,117.0,82.0,87.0,54.0,16.0,114.0,-0.16,0.94,0.18,-50.0,-2.0,0.0,ka
0.0,40.0,117.0,82.0,84.0,54.0,19.0,117.0,-0.17,0.92,0.23,-51.0,5.0,-5.0,ka
0.0,38.0,118.0,83.0,84.0,54.0,19.0,114.0,-0.16,0.9,0.27,-52.0,10.0,-11.0,ka
0.0,38.0,119.0,84.0,84.0,54.0,21.0,114.0,-0.19,0.88,0.31,-46.0,15.0,-15.0,ka
0.0,38.0,119.0,83.0,84.0,55.0,21.0,111.0,-0.21,0.87,0.34,-40.0,18.0,-19.0,ka
0.0,40.0,119.0,83.0,84.0,55.0,19.0,111.0,-0.24,0.86,0.36,-32.0,21.0,-20.0,ka
0.0,38.0,118.0,83.0,81.0,55.0,21.0,111.0,-0.26,0.83,0.38,-22.0,23.0,-22.0,ka
0.0,40.0,118.0,83.0,78.0,55.0,23.0,111.0,-0.29,0.82,0.39,-6.0,25.0,-19.0,ka
0.0,38.0,118.0,84.0,81.0,54.0,23.0,114.0,-0.31,0.81,0.37,8.0,27.0,-18.0,ka
0.0,40.0,118.0,84.0,78.0,55.0,26.0,122.0,-0.34,0.82,0.35,20.0,25.0,-15.0,ka
0.0,40.0,118.0,86.0,78.0,55.0,35.0,122.0,-0.37,0.82,0.32,31.0,22.0,-9.0,ka
0.0,40.0,118.0,87.0,75.0,55.0,38.0,122.0,-0.37,0.83,0.28,37.0,16.0,-3.0,ka
0.0,40.0,117.0,87.0,78.0,55.0,38.0,124.0,-0.39,0.84,0.25,45.0,7.0,4.0,ka
0.0,42.0,116.0,86.0,81.0,55.0,40.0,127.0,-0.38,0.85,0.2,43.0,4.0,9.0,ka
0.0,40.0,115.0,87.0,75.0,55.0,40.0,122.0,-0.37,0.87,0.16,43.0,-2.0,14.0,ka
0.0,40.0,115.0,87.0,78.0,54.0,45.0,124.0,-0.35,0.87,0.12,39.0,-6.0,19.0,ka
0.0,42.0,115.0,87.0,78.0,54.0,45.0,124.0,-0.33,0.89,0.09,32.0,-9.0,22.0,ka
0.0,44.0,114.0,86.0,81.0,54.0,42.0,127.0,-0.32,0.91,0.07,25.0,-12.0,23.0,ka
0.0,46.0,114.0,86.0,81.0,55.0,42.0,127.0,-0.29,0.92,0.06,11.0,-15.0,25.0,ka
0.0,44.0,114.0,86.0,84.0,55.0,45.0,129.0,-0.27,0.93,0.06,-4.0,-16.0,23.0,ka
0.0,42.0,113.0,85.0,81.0,58.0,40.0,129.0,-0.24,0.94,0.07,-16.0,-14.0,20.0,ka
0.0,40.0,113.0,83.0,81.0,58.0,35.0,132.0,-0.23,0.93,0.1,-23.0,-13.0,17.0,ka
0.0,40.0,113.0,83.0,81.0,58.0,31.0,129.0,-0.22,0.93,0.12,-34.0,-9.0,12.0,ka
0.0,38.0,113.0,83.0,78.0,58.0,26.0,129.0,-0.2,0.93,0.16,-39.0,-5.0,7.0,ka
0.0,38.0,114.0,82.0,78.0,58.0,26.0,132.0,-0.21,0.92,0.2,-45.0,2.0,1.0,ka
0.0,38.0,114.0,83.0,78.0,58.0,19.0,129.0,-0.2,0.92,0.23,-48.0,9.0,-5.0,ka
0.0,36.0,114.0,83.0,75.0,58.0,14.0,127.0,-0.21,0.9,0.28,-48.0,12.0,-11.0,ka
0.0,34.0,115.0,83.0,69.0,57.0,14.0,127.0,-0.24,0.87,0.32,-48.0,20.0,-15.0,ka
0.0,32.0,116.0,83.0,66.0,58.0,16.0,127.0,-0.26,0.86,0.35,-41.0,24.0,-19.0,ka
0.0,34.0,118.0,83.0,69.0,57.0,14.0,124.0,-0.29,0.85,0.37,-27.0,24.0,-20.0,ka
0.0,38.0,120.0,82.0,72.0,54.0,7.0,124.0,-0.32,0.84,0.38,-13.0,27.0,-19.0,ka
0.0,40.0,120.0,83.0,72.0,55.0,9.0,122.0,-0.33,0.84,0.37,0.0,26.0,-18.0,ka
0.0,42.0,120.0,83.0,75.0,55.0,16.0,122.0,-0.36,0.84,0.36,15.0,24.0,-14.0,ka
0.0,38.0,120.0,83.0,75.0,54.0,19.0,122.0,-0.39,0.85,0.33,25.0,20.0,-10.0,ka
0.0,40.0,119.0,82.0,78.0,54.0,16.0,122.0,-0.39,0.86,0.3,34.0,15.0,-4.0,ka
0.0,40.0,119.0,83.0,81.0,55.0,21.0,124.0,-0.41,0.85,0.27,40.0,7.0,1.0,ka
0.0,40.0,119.0,83.0,84.0,55.0,19.0,127.0,-0.41,0.88,0.23,39.0,0.0,7.0,ka
0.0,42.0,119.0,81.0,87.0,55.0,21.0,127.0,-0.39,0.91,0.2,43.0,-8.0,13.0,ka
0.0,42.0,117.0,81.0,93.0,55.0,19.0,127.0,-0.37,0.92,0.16,39.0,-17.0,18.0,ka
0.0,40.0,115.0,81.0,90.0,55.0,19.0,124.0,-0.35,0.94,0.13,33.0,-19.0,21.0,ka
0.0,38.0,113.0,81.0,93.0,55.0,28.0,124.0,-0.32,0.94,0.11,23.0,-24.0,24.0,ka
0.0,40.0,113.0,80.0,96.0,55.0,28.0,124.0,-0.3,0.96,0.11,6.0,-25.0,22.0,ka
0.0,40.0,113.0,81.0,96.0,55.0,14.0,124.0,-0.27,0.97,0.11,-6.0,-21.0,20.0,ka
0.0,46.0,113.0,81.0,93.0,55.0,11.0,127.0,-0.24,0.94,0.13,-19.0,-20.0,17.0,ka
0.0,46.0,113.0,81.0,93.0,55.0,7.0,127.0,-0.21,0.94,0.16,-32.0,-15.0,12.0,ka
0.0,46.0,113.0,82.0,90.0,55.0,2.0,127.0,-0.2,0.94,0.19,-39.0,-10.0,7.0,ka
0.0,50.0,113.0,81.0,93.0,55.0,4.0,124.0,-0.2,0.91,0.23,-46.0,3.0,1.0,ka
0.0,48.0,113.0,83.0,90.0,57.0,0.0,122.0,-0.19,0.9,0.26,-49.0,6.0,-6.0,ka
0.0,46.0,114.0,83.0,90.0,55.0,4.0,122.0,-0.22,0.87,0.31,-48.0,14.0,-11.0,ka
0.0,46.0,114.0,83.0,81.0,55.0,2.0,122.0,-0.24,0.83,0.35,-46.0,23.0,-15.0,ka
0.0,44.0,114.0,84.0,75.0,55.0,0.0,119.0,-0.26,0.82,0.38,-38.0,26.0,-19.0,ka
0.0,42.0,114.0,84.0,75.0,55.0,0.0,119.0,-0.3,0.79,0.4,-23.0,29.0,-20.0,ka
0.0,42.0,113.0,84.0,72.0,55.0,14.0,119.0,-0.33,0.79,0.4,-11.0,27.0,-20.0,ka
0.0,40.0,113.0,84.0,72.0,55.0,14.0,117.0,-0.36,0.8,0.4,4.0,26.0,-18.0,ka
0.0,40.0,113.0,85.0,69.0,55.0,23.0,117.0,-0.39,0.77,0.39,18.0,20.0,-13.0,ka
0.0,38.0,112.0,85.0,72.0,55.0,28.0,117.0,-0.41,0.77,0.36,27.0,17.0,-9.0,ka
0.0,38.0,113.0,86.0,69.0,55.0,35.0,119.0,-0.42,0.79,0.33,40.0,7.0,-2.0,ka
0.0,38.0,113.0,86.0,69.0,55.0,38.0,122.0,-0.44,0.8,0.29,45.0,3.0,4.0,ka
0.0,44.0,112.0,86.0,69.0,55.0,35.0,122.0,-0.43,0.82,0.24,48.0,-4.0,10.0,ka
0.0,44.0,112.0,86.0,72.0,55.0,35.0,122.0,-0.42,0.84,0.21,50.0,-13.0,16.0,ka
0.0,44.0,112.0,85.0,72.0,55.0,35.0,122.0,-0.4,0.87,0.17,45.0,-18.0,21.0,ka
0.0,46.0,112.0,86.0,75.0,57.0,42.0,122.0,-0.36,0.88,0.14,40.0,-23.0,26.0,ka
0.0,44.0,112.0,85.0,75.0,55.0,40.0,122.0,-0.33,0.89,0.11,32.0,-27.0,30.0,ka
0.0,46.0,112.0,80.0,75.0,57.0,38.0,122.0,-0.31,0.91,0.1,19.0,-29.0,31.0,ka
0.0,44.0,112.0,80.0,75.0,55.0,38.0,122.0,-0.28,0.93,0.09,9.0,-28.0,30.0,ka
0.0,44.0,112.0,79.0,78.0,55.0,40.0,122.0,-0.24,0.91,0.1,-4.0,-28.0,29.0,ka
0.0,42.0,113.0,76.0,78.0,55.0,26.0,119.0,-0.21,0.92,0.13,-16.0,-25.0,23.0,ka
0.0,42.0,113.0,76.0,78.0,55.0,23.0,119.0,-0.18,0.91,0.15,-25.0,-18.0,18.0,ka
0.0,36.0,115.0,76.0,81.0,55.0,23.0,119.0,-0.15,0.91,0.18,-35.0,-10.0,10.0,ka
0.0,38.0,115.0,76.0,81.0,55.0,26.0,119.0,-0.14,0.91,0.22,-38.0,-3.0,3.0,ka
0.0,40.0,116.0,76.0,84.0,55.0,26.0,117.0,-0.17,0.88,0.26,-41.0,9.0,-4.0,ka
0.0,38.0,117.0,76.0,81.0,55.0,23.0,119.0,-0.18,0.87,0.28,-44.0,17.0,-11.0,ka
0.0,38.0,117.0,77.0,81.0,55.0,28.0,124.0,-0.2,0.85,0.32,-37.0,19.0,-16.0,ka
0.0,38.0,117.0,81.0,81.0,52.0,31.0,124.0,-0.24,0.83,0.35,-28.0,26.0,-20.0,ka
0.0,38.0,116.0,81.0,78.0,54.0,31.0,124.0,-0.27,0.82,0.36,-12.0,28.0,-21.0,ka
0.0,36.0,116.0,82.0,72.0,58.0,31.0,127.0,-0.31,0.84,0.35,2.0,29.0,-20.0,ka
0.0,36.0,115.0,85.0,72.0,58.0,40.0,124.0,-0.32,0.84,0.33,12.0,28.0,-17.0,ka
0.0,38.0,115.0,85.0,72.0,58.0,42.0,122.0,-0.35,0.84,0.31,23.0,24.0,-13.0,ka
0.0,40.0,113.0,86.0,69.0,60.0,42.0,127.0,-0.38,0.84,0.29,34.0,19.0,-8.0,ka
0.0,42.0,114.0,85.0,69.0,58.0,40.0,129.0,-0.39,0.84,0.25,38.0,17.0,-4.0,ka
0.0,40.0,114.0,86.0,69.0,58.0,40.0,129.0,-0.38,0.86,0.2,43.0,8.0,1.0,ka
0.0,40.0,113.0,86.0,66.0,58.0,38.0,127.0,-0.4,0.87,0.17,45.0,3.0,4.0,ka
0.0,40.0,112.0,86.0,66.0,58.0,35.0,122.0,-0.38,0.88,0.13,39.0,5.0,5.0,ka
0.0,38.0,112.0,85.0,69.0,60.0,33.0,119.0,-0.37,0.9,0.09,32.0,0.0,6.0,ka
0.0,40.0,113.0,85.0,72.0,58.0,31.0,119.0,-0.36,0.91,0.07,20.0,0.0,5.0,ka
0.0,40.0,113.0,84.0,78.0,54.0,33.0,122.0,-0.35,0.92,0.06,9.0,1.0,2.0,ka
0.0,40.0,113.0,85.0,75.0,54.0,28.0,122.0,-0.36,0.9,0.06,1.0,3.0,0.0,ka
0.0,38.0,112.0,85.0,75.0,54.0,28.0,122.0,-0.36,0.9,0.06,-11.0,4.0,-4.0,ka
0.0,36.0,112.0,86.0,72.0,54.0,28.0,117.0,-0.37,0.89,0.07,-20.0,6.0,-5.0,ka
0.0,36.0,111.0,86.0,72.0,54.0,35.0,119.0,-0.37,0.88,0.09,-27.0,4.0,-4.0,ka
0.0,34.0,111.0,85.0,69.0,52.0,40.0,117.0,-0.38,0.87,0.12,-30.0,5.0,-2.0,ka
0.0,38.0,111.0,84.0,75.0,52.0,42.0,119.0,-0.37,0.86,0.14,-29.0,7.0,3.0,ka
0.0,36.0,110.0,83.0,72.0,52.0,35.0,117.0,-0.38,0.86,0.16,-25.0,7.0,7.0,ka
0.0,38.0,110.0,84.0,72.0,52.0,35.0,117.0,-0.36,0.85,0.18,-21.0,9.0,12.0,ka
0.0,38.0,111.0,84.0,72.0,52.0,35.0,117.0,-0.35,0.85,0.19,-16.0,11.0,15.0,ka
0.0,38.0,111.0,84.0,72.0,52.0,31.0,117.0,-0.34,0.86,0.2,-8.0,11.0,18.0,ka
0.0,38.0,111.0,83.0,75.0,52.0,31.0,117.0,-0.32,0.87,0.2,1.0,12.0,21.0,ka
0.0,38.0,111.0,82.0,75.0,52.0,33.0,117.0,-0.3,0.89,0.19,10.0,13.0,22.0,ka
0.0,38.0,111.0,81.0,81.0,52.0,31.0,119.0,-0.27,0.9,0.17,18.0,13.0,21.0,ka
0.0,38.0,111.0,81.0,81.0,52.0,26.0,119.0,-0.25,0.91,0.14,24.0,15.0,18.0,ka
0.0,38.0,111.0,81.0,81.0,54.0,16.0,122.0,-0.23,0.93,0.11,25.0,18.0,12.0,ka
0.0,36.0,110.0,80.0,75.0,55.0,14.0,122.0,-0.23,0.94,0.08,23.0,17.0,4.0,ka
0.0,36.0,110.0,80.0,78.0,54.0,16.0,119.0,-0.23,0.95,0.06,17.0,19.0,-4.0,ka
0.0,36.0,110.0,80.0,81.0,54.0,28.0,122.0,-0.24,0.94,0.04,12.0,16.0,-12.0,ka
0.0,36.0,111.0,80.0,78.0,54.0,28.0,124.0,-0.26,0.94,0.03,0.0,12.0,-20.0,ka
0.0,34.0,110.0,80.0,75.0,54.0,28.0,122.0,-0.28,0.93,0.03,-8.0,9.0,-24.0,ka
0.0,34.0,110.0,79.0,78.0,52.0,31.0,122.0,-0.31,0.92,0.04,-17.0,5.0,-27.0,ka
0.0,34.0,111.0,81.0,78.0,52.0,33.0,122.0,-0.33,0.91,0.05,-23.0,1.0,-27.0,ka
0.0,36.0,111.0,81.0,78.0,55.0,33.0,119.0,-0.37,0.9,0.08,-25.0,-5.0,-24.0,ka
0.0,34.0,111.0,82.0,72.0,55.0,35.0,114.0,-0.39,0.88,0.1,-27.0,-10.0,-19.0,ka
0.0,38.0,111.0,82.0,75.0,55.0,38.0,114.0,-0.4,0.89,0.13,-24.0,-19.0,-10.0,ka
0.0,36.0,111.0,83.0,78.0,55.0,40.0,114.0,-0.39,0.88,0.16,-22.0,-21.0,-5.0,ka
0.0,36.0,112.0,83.0,75.0,55.0,40.0,114.0,-0.37,0.88,0.18,-18.0,-22.0,3.0,ka
0.0,34.0,112.0,84.0,75.0,55.0,31.0,114.0,-0.37,0.89,0.21,-14.0,-19.0,8.0,ka
0.0,36.0,112.0,84.0,81.0,55.0,33.0,114.0,-0.35,0.89,0.22,-3.0,-15.0,14.0,ka
0.0,36.0,112.0,83.0,81.0,55.0,33.0,114.0,-0.33,0.89,0.22,1.0,-12.0,16.0,ka
0.0,38.0,112.0,83.0,81.0,55.0,31.0,117.0,-0.32,0.9,0.23,7.0,-9.0,18.0,ka
0.0,38.0,111.0,81.0,81.0,55.0,26.0,117.0,-0.29,0.91,0.22,12.0,-5.0,18.0,ka
0.0,38.0,112.0,80.0,84.0,52.0,26.0,117.0,-0.27,0.93,0.21,13.0,-2.0,15.0,ka
0.0,40.0,111.0,80.0,87.0,52.0,23.0,117.0,-0.25,0.93,0.2,16.0,3.0,11.0,ka
0.0,38.0,111.0,79.0,90.0,52.0,23.0,117.0,-0.25,0.93,0.18,13.0,8.0,5.0,ka
0.0,40.0,111.0,77.0,87.0,51.0,23.0,114.0,-0.25,0.93,0.17,13.0,10.0,2.0,ka
0.0,38.0,111.0,77.0,87.0,51.0,23.0,114.0,-0.26,0.94,0.15,14.0,9.0,-2.0,ka
0.0,38.0,111.0,76.0,87.0,51.0,26.0,111.0,-0.27,0.94,0.14,12.0,7.0,-3.0,ka
0.0,38.0,111.0,76.0,87.0,52.0,26.0,111.0,-0.26,0.94,0.12,10.0,4.0,-3.0,ka
0.0,40.0,110.0,76.0,93.0,52.0,26.0,111.0,-0.27,0.94,0.11,10.0,1.0,-2.0,ka
0.0,36.0,110.0,76.0,90.0,52.0,28.0,106.0,-0.27,0.94,0.1,8.0,2.0,-3.0,ka
0.0,38.0,110.0,76.0,93.0,52.0,23.0,104.0,-0.27,0.93,0.09,7.0,0.0,-3.0,ka
0.0,36.0,110.0,76.0,90.0,52.0,28.0,109.0,-0.27,0.93,0.09,5.0,0.0,-3.0,ka
0.0,34.0,110.0,76.0,90.0,51.0,33.0,109.0,-0.27,0.93,0.09,4.0,0.0,-2.0,ka
0.0,36.0,110.0,76.0,87.0,49.0,33.0,109.0,-0.27,0.93,0.09,3.0,0.0,-2.0,ka
0.0,34.0,110.0,76.0,90.0,51.0,38.0,114.0,-0.27,0.93,0.08,1.0,0.0,-2.0,ka
0.0,36.0,110.0,76.0,90.0,48.0,33.0,114.0,-0.27,0.92,0.08,0.0,0.0,-1.0,ka
0.0,36.0,110.0,76.0,90.0,49.0,35.0,114.0,-0.27,0.92,0.08,0.0,0.0,-1.0,ka
0.0,34.0,110.0,76.0,90.0,49.0,33.0,117.0,-0.27,0.92,0.08,0.0,0.0,-1.0,ka
0.0,34.0,111.0,76.0,84.0,48.0,33.0,117.0,-0.27,0.93,0.08,-2.0,0.0,-1.0,ka
0.0,36.0,111.0,76.0,81.0,49.0,35.0,122.0,-0.27,0.93,0.09,-2.0,0.0,-1.0,ka
0.0,34.0,112.0,76.0,81.0,49.0,42.0,124.0,-0.27,0.93,0.09,-2.0,1.0,-1.0,ka
0.0,32.0,112.0,76.0,78.0,48.0,45.0,124.0,-0.27,0.93,0.09,-2.0,1.0,-1.0,ka
0.0,34.0,112.0,76.0,81.0,51.0,38.0,122.0,-0.27,0.93,0.09,-2.0,1.0,-1.0,ka
0.0,34.0,112.0,76.0,81.0,51.0,38.0,122.0,-0.28,0.93,0.09,-2.0,1.0,0.0,ka
0.0,34.0,112.0,76.0,81.0,51.0,33.0,122.0,-0.28,0.93,0.09,-2.0,1.0,0.0,ka
0.0,34.0,112.0,76.0,78.0,52.0,31.0,119.0,-0.28,0.93,0.09,-2.0,1.0,0.0,ka
0.0,34.0,111.0,76.0,78.0,51.0,28.0,119.0,-0.28,0.93,0.09,-2.0,1.0,0.0,ka
0.0,34.0,111.0,76.0,78.0,52.0,33.0,117.0,-0.28,0.93,0.09,-2.0,1.0,0.0,ka
0.0,32.0,111.0,75.0,75.0,52.0,31.0,117.0,-0.28,0.93,0.09,0.0,2.0,0.0,ka
0.0,30.0,112.0,76.0,75.0,52.0,31.0,117.0,-0.28,0.93,0.09,2.0,2.0,0.0,ka
0.0,30.0,112.0,75.0,75.0,52.0,31.0,117.0,-0.27,0.94,0.08,2.0,1.0,0.0,ka
0.0,32.0,111.0,75.0,75.0,52.0,28.0,117.0,-0.27,0.93,0.08,2.0,1.0,0.0,ka
0.0,32.0,111.0,76.0,75.0,52.0,33.0,119.0,-0.27,0.94,0.08,1.0,2.0,0.0,ka
0.0,30.0,111.0,75.0,72.0,52.0,33.0,119.0,-0.27,0.93,0.08,1.0,2.0,0.0,ka
0.0,32.0,111.0,75.0,72.0,52.0,35.0,122.0,-0.27,0.93,0.08,0.0,2.0,0.0,ka
0.0,30.0,111.0,76.0,72.0,52.0,42.0,122.0,-0.27,0.93,0.08,0.0,2.0,0.0,ka
0.0,32.0,111.0,76.0,75.0,52.0,40.0,124.0,-0.27,0.93,0.08,0.0,2.0,0.0,ka
0.0,32.0,111.0,76.0,75.0,51.0,42.0,124.0,-0.27,0.94,0.08,0.0,2.0,0.0,ka
0.0,34.0,111.0,76.0,78.0,51.0,45.0,124.0,-0.27,0.93,0.07,-1.0,2.0,0.0,ka
0.0,34.0,111.0,76.0,81.0,49.0,47.0,127.0,-0.27,0.93,0.08,-3.0,2.0,-1.0,ka
0.0,34.0,110.0,76.0,81.0,48.0,50.0,127.0,-0.28,0.93,0.08,-3.0,3.0,-1.0,ka
0.0,34.0,110.0,76.0,81.0,48.0,50.0,124.0,-0.27,0.93,0.08,-2.0,3.0,-1.0,ka
0.0,34.0,110.0,77.0,81.0,49.0,52.0,124.0,-0.28,0.93,0.08,-2.0,3.0,-1.0,ka
0.0,34.0,110.0,76.0,87.0,48.0,69.0,124.0,-0.28,0.93,0.08,-2.0,2.0,0.0,ka
0.0,34.0,110.0,76.0,87.0,49.0,73.0,127.0,-0.28,0.93,0.08,-2.0,2.0,-1.0,ka
0.0,34.0,110.0,75.0,87.0,49.0,71.0,124.0,-0.28,0.93,0.08,-2.0,2.0,-1.0,ka
0.0,36.0,109.0,74.0,87.0,49.0,73.0,124.0,-0.28,0.93,0.08,-2.0,2.0,-1.0,ka
0.0,36.0,109.0,74.0,87.0,51.0,73.0,137.0,-0.28,0.93,0.08,-2.0,2.0,-1.0,ka
0.0,34.0,109.0,74.0,87.0,51.0,69.0,137.0,-0.28,0.93,0.08,-2.0,2.0,-1.0,ka
0.0,34.0,108.0,74.0,87.0,51.0,66.0,137.0,-0.28,0.93,0.08,-2.0,2.0,-1.0,ka
0.0,36.0,108.0,74.0,90.0,52.0,66.0,134.0,-0.28,0.93,0.08,-2.0,2.0,-1.0,ka
0.0,36.0,108.0,74.0,87.0,52.0,64.0,137.0,-0.28,0.93,0.08,-2.0,2.0,-1.0,ka
0.0,36.0,108.0,73.0,87.0,52.0,64.0,134.0,-0.28,0.93,0.08,-2.0,2.0,-1.0,ka
0.0,38.0,108.0,73.0,78.0,52.0,52.0,132.0,-0.28,0.93,0.08,-2.0,2.0,-1.0,ka
0.0,38.0,108.0,74.0,78.0,51.0,52.0,132.0,-0.28,0.93,0.08,-1.0,2.0,0.0,ka
0.0,38.0,108.0,74.0,78.0,51.0,40.0,132.0,-0.28,0.93,0.08,-2.0,2.0,0.0,ka
0.0,36.0,109.0,74.0,78.0,51.0,42.0,132.0,-0.28,0.93,0.08,-1.0,2.0,0.0,ka
0.0,36.0,108.0,75.0,78.0,51.0,42.0,122.0,-0.28,0.93,0.08,-2.0,2.0,0.0,ka
0.0,40.0,108.0,74.0,78.0,51.0,42.0,124.0,-0.28,0.93,0.08,-1.0,1.0,0.0,ka
0.0,40.0,109.0,77.0,75.0,52.0,45.0,124.0,-0.28,0.93,0.08,-2.0,2.0,0.0,ka
0.0,40.0,109.0,77.0,72.0,52.0,45.0,122.0,-0.28,0.93,0.08,-1.0,2.0,0.0,ka
0.0,38.0,109.0,77.0,72.0,52.0,47.0,122.0,-0.28,0.93,0.08,-2.0,1.0,0.0,ka
0.0,38.0,109.0,77.0,75.0,52.0,45.0,124.0,-0.28,0.93,0.08,-1.0,1.0,0.0,ka
0.0,38.0,109.0,77.0,78.0,51.0,33.0,127.0,-0.28,0.93,0.08,-2.0,1.0,0.0,ka
0.0,40.0,109.0,77.0,81.0,52.0,33.0,124.0,-0.28,0.93,0.08,-2.0,1.0,-1.0,ka
0.0,42.0,109.0,77.0,81.0,52.0,45.0,127.0,-0.28,0.93,0.08,-1.0,1.0,-1.0,ka
0.0,42.0,109.0,77.0,78.0,52.0,47.0,127.0,-0.28,0.93,0.08,-2.0,1.0,-1.0,ka
0.0,42.0,109.0,76.0,84.0,54.0,45.0,124.0,-0.28,0.93,0.08,-2.0,1.0,-1.0,ka
0.0,38.0,109.0,77.0,81.0,55.0,50.0,132.0,-0.28,0.93,0.08,-2.0,1.0,0.0,ka
0.0,40.0,110.0,75.0,84.0,55.0,47.0,129.0,-0.28,0.93,0.08,-2.0,1.0,-1.0,ka
0.0,38.0,110.0,75.0,84.0,55.0,50.0,132.0,-0.28,0.93,0.08,-2.0,1.0,-1.0,ka
0.0,38.0,109.0,75.0,84.0,55.0,47.0,132.0,-0.28,0.93,0.08,-2.0,1.0,-1.0,ka
0.0,40.0,109.0,75.0,87.0,54.0,47.0,127.0,-0.28,0.93,0.08,-2.0,1.0,0.0,ka
0.0,38.0,109.0,75.0,87.0,54.0,62.0,127.0,-0.28,0.93,0.08,-1.0,1.0,0.0,ka
0.0,36.0,110.0,78.0,84.0,54.0,59.0,127.0,-0.28,0.93,0.08,-1.0,1.0,0.0,ka
0.0,36.0,109.0,78.0,90.0,54.0,62.0,129.0,-0.28,0.93,0.08,-1.0,2.0,0.0,ka
0.0,34.0,110.0,79.0,87.0,54.0,57.0,129.0,-0.28,0.93,0.08,-1.0,2.0,0.0,ka
0.0,34.0,110.0,79.0,84.0,52.0,62.0,129.0,-0.28,0.93,0.08,-1.0,2.0,0.0,ka
0.0,32.0,110.0,79.0,84.0,52.0,64.0,109.0,-0.28,0.93,0.08,0.0,2.0,0.0,ka
0.0,34.0,110.0,78.0,84.0,52.0,62.0,109.0,-0.28,0.93,0.08,-1.0,2.0,0.0,ka
0.0,32.0,110.0,78.0,84.0,52.0,62.0,111.0,-0.28,0.93,0.08,0.0,2.0,0.0,ka
0.0,36.0,110.0,78.0,84.0,52.0,71.0,109.0,-0.28,0.93,0.08,-1.0,2.0,0.0,ka
0.0,36.0,110.0,78.0,81.0,52.0,71.0,117.0,-0.28,0.93,0.08,0.0,2.0,0.0,ka
0.0,34.0,109.0,77.0,81.0,52.0,66.0,114.0,-0.28,0.93,0.08,-1.0,2.0,0.0,ka
0.0,34.0,109.0,74.0,84.0,52.0,66.0,117.0,-0.28,0.93,0.08,-1.0,2.0,0.0,ka
0.0,32.0,109.0,74.0,81.0,52.0,66.0,114.0,-0.28,0.93,0.08,-1.0,2.0,0.0,ka
0.0,36.0,109.0,74.0,81.0,52.0,66.0,114.0,-0.28,0.93,0.08,-1.0,2.0,0.0,ka
0.0,36.0,109.0,74.0,84.0,52.0,62.0,114.0,-0.28,0.93,0.08,-2.0,2.0,0.0,ka
0.0,40.0,109.0,74.0,87.0,52.0,69.0,124.0,-0.28,0.93,0.08,-2.0,2.0,0.0,ka
0.0,40.0,109.0,74.0,90.0,51.0,69.0,124.0,-0.29,0.93,0.08,-2.0,2.0,0.0,ka
0.0,40.0,109.0,74.0,90.0,51.0,69.0,122.0,-0.29,0.93,0.08,-2.0,2.0,0.0,ka
0.0,40.0,109.0,73.0,90.0,51.0,57.0,119.0,-0.29,0.93,0.08,-2.0,2.0,0.0,ka
0.0,38.0,109.0,74.0,87.0,52.0,52.0,117.0,-0.29,0.93,0.09,-2.0,3.0,0.0,ka
0.0,42.0,109.0,74.0,87.0,52.0,54.0,117.0,-0.29,0.93,0.09,-2.0,3.0,0.0,ka
0.0,42.0,109.0,74.0,87.0,52.0,52.0,117.0,-0.29,0.93,0.09,-1.0,3.0,0.0,ka
0.0,44.0,109.0,74.0,84.0,52.0,45.0,119.0,-0.28,0.93,0.09,-1.0,2.0,1.0,ka
0.0,40.0,109.0,74.0,84.0,52.0,42.0,117.0,-0.28,0.93,0.08,0.0,2.0,1.0,ka
0.0,40.0,109.0,73.0,84.0,55.0,47.0,119.0,-0.28,0.93,0.08,0.0,2.0,1.0,ka
0.0,38.0,109.0,74.0,81.0,55.0,38.0,119.0,-0.28,0.93,0.08,0.0,3.0,2.0,ka
0.0,40.0,109.0,74.0,81.0,55.0,42.0,114.0,-0.27,0.93,0.08,0.0,4.0,2.0,ka
0.0,42.0,110.0,74.0,84.0,55.0,40.0,117.0,-0.27,0.93,0.08,0.0,6.0,1.0,ka
0.0,42.0,109.0,74.0,87.0,55.0,38.0,119.0,-0.27,0.93,0.08,-2.0,5.0,1.0,ka
0.0,42.0,109.0,74.0,90.0,54.0,47.0,119.0,-0.26,0.94,0.08,-4.0,5.0,1.0,ka
0.0,38.0,109.0,73.0,90.0,54.0,47.0,119.0,-0.26,0.96,0.07,-12.0,5.0,0.0,ka
0.0,38.0,109.0,73.0,87.0,54.0,52.0,119.0,-0.26,0.96,0.09,-17.0,5.0,0.0,ka
0.0,36.0,109.0,73.0,87.0,54.0,52.0,119.0,-0.26,0.97,0.1,-21.0,3.0,-2.0,ka
0.0,36.0,109.0,73.0,75.0,54.0,57.0,119.0,-0.26,0.97,0.12,-24.0,4.0,-3.0,ka
0.0,36.0,109.0,74.0,75.0,52.0,54.0,117.0,-0.26,0.96,0.14,-25.0,2.0,-6.0,ka
0.0,38.0,109.0,74.0,66.0,52.0,52.0,119.0,-0.27,0.95,0.17,-25.0,2.0,-9.0,ka
0.0,34.0,110.0,74.0,63.0,54.0,52.0,124.0,-0.27,0.94,0.18,-24.0,3.0,-11.0,ka
0.0,32.0,110.0,74.0,63.0,54.0,54.0,122.0,-0.28,0.93,0.2,-20.0,0.0,-11.0,ka
0.0,30.0,111.0,74.0,63.0,52.0,57.0,122.0,-0.29,0.93,0.21,-14.0,1.0,-11.0,ka
0.0,32.0,110.0,74.0,63.0,52.0,54.0,119.0,-0.3,0.92,0.21,-8.0,0.0,-10.0,ka
0.0,34.0,111.0,76.0,63.0,52.0,54.0,122.0,-0.31,0.91,0.22,3.0,0.0,-7.0,ka
0.0,34.0,111.0,75.0,63.0,52.0,47.0,119.0,-0.31,0.91,0.21,9.0,0.0,-6.0,ka
0.0,36.0,113.0,75.0,66.0,52.0,50.0,122.0,-0.32,0.9,0.19,15.0,1.0,-4.0,ka
0.0,34.0,113.0,75.0,75.0,51.0,50.0,122.0,-0.32,0.9,0.17,16.0,1.0,-3.0,ka
0.0,36.0,113.0,75.0,84.0,51.0,50.0,124.0,-0.32,0.9,0.16,18.0,2.0,0.0,ka
0.0,34.0,113.0,79.0,96.0,51.0,54.0,129.0,-0.32,0.9,0.13,18.0,2.0,3.0,ka
0.0,36.0,112.0,78.0,96.0,49.0,54.0,129.0,-0.32,0.91,0.12,18.0,0.0,6.0,ka
0.0,36.0,112.0,77.0,96.0,49.0,52.0,129.0,-0.31,0.92,0.1,14.0,0.0,7.0,ka
0.0,38.0,112.0,77.0,96.0,51.0,52.0,132.0,-0.3,0.92,0.09,9.0,0.0,7.0,ka
0.0,36.0,113.0,76.0,96.0,52.0,52.0,132.0,-0.3,0.92,0.08,5.0,1.0,6.0,ka
0.0,38.0,112.0,76.0,96.0,51.0,57.0,132.0,-0.29,0.91,0.08,2.0,1.0,5.0,ka
0.0,38.0,113.0,76.0,99.0,49.0,62.0,132.0,-0.29,0.92,0.08,1.0,1.0,3.0,ka
0.0,36.0,110.0,77.0,93.0,51.0,64.0,129.0,-0.28,0.92,0.08,0.0,2.0,2.0,ka
0.0,48.0,110.0,77.0,90.0,51.0,59.0,129.0,-0.28,0.92,0.08,0.0,2.0,2.0,ka
0.0,46.0,110.0,77.0,87.0,51.0,59.0,129.0,-0.27,0.93,0.07,1.0,2.0,2.0,ka
0.0,46.0,110.0,73.0,81.0,51.0,57.0,124.0,-0.27,0.93,0.07,0.0,1.0,1.0,ka
0.0,44.0,110.0,73.0,81.0,51.0,54.0,122.0,-0.27,0.93,0.07,0.0,3.0,0.0,ka
0.0,46.0,110.0,74.0,81.0,51.0,57.0,124.0,-0.27,0.93,0.07,1.0,3.0,0.0,ka
0.0,46.0,110.0,74.0,81.0,49.0,57.0,122.0,-0.27,0.93,0.07,2.0,3.0,0.0,ka
0.0,46.0,110.0,75.0,78.0,49.0,59.0,124.0,-0.27,0.93,0.07,2.0,3.0,0.0,ka
0.0,48.0,110.0,75.0,75.0,54.0,54.0,122.0,-0.27,0.93,0.07,2.0,4.0,0.0,ka
0.0,48.0,109.0,75.0,72.0,54.0,50.0,122.0,-0.26,0.93,0.06,2.0,4.0,0.0,ka
0.0,50.0,109.0,73.0,72.0,52.0,50.0,122.0,-0.26,0.93,0.06,3.0,5.0,0.0,ka
0.0,38.0,110.0,73.0,75.0,52.0,50.0,122.0,-0.26,0.93,0.05,3.0,5.0,0.0,ka
0.0,40.0,110.0,73.0,75.0,52.0,52.0,122.0,-0.26,0.93,0.05,2.0,6.0,-2.0,ka
0.0,40.0,109.0,73.0,81.0,51.0,47.0,122.0,-0.26,0.93,0.05,2.0,7.0,-3.0,ka
0.0,42.0,109.0,72.0,78.0,51.0,47.0,119.0,-0.27,0.93,0.04,1.0,6.0,-3.0,ka
0.0,40.0,109.0,72.0,78.0,51.0,45.0,119.0,-0.27,0.93,0.04,0.0,6.0,-4.0,ka
0.0,42.0,109.0,73.0,78.0,51.0,45.0,117.0,-0.27,0.93,0.04,-3.0,6.0,-5.0,ka
0.0,42.0,109.0,73.0,75.0,52.0,42.0,117.0,-0.28,0.92,0.04,-5.0,6.0,-4.0,ka
0.0,40.0,107.0,73.0,78.0,48.0,42.0,117.0,-0.29,0.93,0.04,-5.0,4.0,-3.0,ka
0.0,40.0,107.0,73.0,81.0,48.0,45.0,117.0,-0.29,0.92,0.04,-5.0,3.0,-2.0,ka
0.0,40.0,107.0,73.0,84.0,48.0,42.0,117.0,-0.29,0.93,0.04,-6.0,0.0,-2.0,ka
0.0,40.0,106.0,73.0,84.0,42.0,45.0,119.0,-0.29,0.92,0.05,-8.0,0.0,-1.0,ka
0.0,38.0,107.0,73.0,81.0,42.0,40.0,117.0,-0.29,0.92,0.06,-9.0,-4.0,0.0,ka
0.0,38.0,107.0,73.0,72.0,43.0,38.0,117.0,-0.29,0.91,0.07,-11.0,-7.0,1.0,ka
0.0,36.0,107.0,73.0,72.0,45.0,38.0,117.0,-0.28,0.92,0.09,-12.0,-6.0,0.0,ka
0.0,38.0,107.0,73.0,72.0,45.0,35.0,117.0,-0.28,0.91,0.1,-11.0,-7.0,0.0,ka
0.0,32.0,107.0,73.0,69.0,45.0,33.0,117.0,-0.28,0.91,0.11,-10.0,-7.0,0.0,ka
0.0,32.0,108.0,72.0,72.0,45.0,31.0,117.0,-0.27,0.91,0.12,-9.0,-7.0,-2.0,ka
0.0,32.0,110.0,72.0,72.0,45.0,28.0,117.0,-0.27,0.9,0.13,-10.0,-6.0,-5.0,ka
0.0,30.0,110.0,72.0,72.0,46.0,26.0,117.0,-0.28,0.91,0.14,-8.0,-6.0,-6.0,ka
0.0,30.0,110.0,73.0,69.0,46.0,26.0,114.0,-0.28,0.9,0.15,-7.0,-3.0,-7.0,ka
0.0,28.0,110.0,73.0,69.0,52.0,26.0,114.0,-0.29,0.9,0.16,-3.0,-2.0,-7.0,ka
0.0,30.0,109.0,73.0,72.0,52.0,26.0,111.0,-0.29,0.9,0.16,1.0,1.0,-7.0,ka
0.0,30.0,110.0,73.0,72.0,52.0,31.0,114.0,-0.3,0.9,0.15,5.0,3.0,-7.0,ka
0.0,30.0,110.0,73.0,72.0,51.0,33.0,111.0,-0.31,0.91,0.14,8.0,4.0,-6.0,ka
0.0,28.0,109.0,73.0,69.0,51.0,38.0,114.0,-0.32,0.91,0.13,9.0,5.0,-5.0,ka
0.0,34.0,109.0,73.0,75.0,51.0,42.0,117.0,-0.32,0.92,0.12,10.0,5.0,-3.0,ka
0.0,36.0,109.0,73.0,75.0,49.0,42.0,117.0,-0.32,0.92,0.1,11.0,6.0,-1.0,ka
0.0,34.0,109.0,73.0,75.0,49.0,45.0,117.0,-0.32,0.92,0.09,11.0,6.0,1.0,ka
0.0,34.0,109.0,72.0,81.0,49.0,40.0,117.0,-0.32,0.92,0.07,9.0,6.0,2.0,ka
0.0,36.0,108.0,71.0,81.0,48.0,42.0,117.0,-0.32,0.93,0.06,7.0,3.0,3.0,ka
0.0,26.0,108.0,71.0,81.0,48.0,42.0,117.0,-0.31,0.93,0.06,5.0,3.0,4.0,ka
0.0,26.0,108.0,71.0,81.0,48.0,45.0,117.0,-0.31,0.94,0.05,2.0,2.0,4.0,ka
0.0,26.0,107.0,71.0,84.0,48.0,45.0,117.0,-0.3,0.94,0.05,0.0,2.0,4.0,ka
0.0,26.0,110.0,71.0,84.0,49.0,50.0,117.0,-0.3,0.93,0.05,-2.0,1.0,4.0,ka
0.0,26.0,110.0,71.0,84.0,49.0,50.0,117.0,-0.29,0.93,0.05,-3.0,0.0,3.0,ka
0.0,24.0,110.0,71.0,84.0,48.0,45.0,114.0,-0.29,0.93,0.05,-4.0,0.0,2.0,ka
0.0,24.0,110.0,71.0,81.0,48.0,52.0,117.0,-0.29,0.93,0.06,-4.0,0.0,1.0,ka
0.0,22.0,111.0,71.0,81.0,49.0,50.0,117.0,-0.29,0.93,0.06,-4.0,0.0,0.0,ka
0.0,22.0,110.0,71.0,75.0,49.0,52.0,117.0,-0.29,0.93,0.06,-3.0,0.0,0.0,ka
0.0,22.0,111.0,71.0,72.0,51.0,50.0,124.0,-0.29,0.93,0.06,-3.0,2.0,0.0,ka
0.0,32.0,109.0,71.0,72.0,51.0,50.0,124.0,-0.29,0.93,0.06,-3.0,2.0,0.0,ka
0.0,34.0,109.0,71.0,72.0,51.0,50.0,124.0,-0.29,0.93,0.06,-2.0,2.0,0.0,ka
0.0,34.0,110.0,71.0,69.0,51.0,47.0,124.0,-0.29,0.93,0.06,-3.0,2.0,0.0,ka
0.0,34.0,107.0,71.0,72.0,49.0,47.0,124.0,-0.29,0.93,0.06,-2.0,3.0,0.0,ka
0.0,34.0,107.0,71.0,72.0,49.0,42.0,127.0,-0.29,0.93,0.07,-2.0,4.0,0.0,ka
0.0,34.0,106.0,71.0,69.0,49.0,45.0,129.0,-0.29,0.93,0.06,0.0,5.0,0.0,ka
0.0,34.0,106.0,70.0,69.0,51.0,40.0,124.0,-0.29,0.93,0.06,0.0,7.0,0.0,ka
0.0,34.0,106.0,70.0,69.0,51.0,42.0,124.0,-0.29,0.93,0.05,1.0,9.0,-2.0,ka
0.0,34.0,106.0,71.0,69.0,49.0,42.0,124.0,-0.3,0.93,0.05,1.0,9.0,-4.0,ka
0.0,32.0,106.0,71.0,69.0,49.0,47.0,119.0,-0.3,0.94,0.05,-2.0,12.0,-6.0,ka
0.0,32.0,108.0,71.0,69.0,49.0,47.0,119.0,-0.31,0.93,0.05,-3.0,12.0,-8.0,ka
0.0,30.0,108.0,70.0,72.0,48.0,45.0,119.0,-0.32,0.93,0.04,-6.0,11.0,-11.0,ka
0.0,30.0,108.0,70.0,78.0,48.0,40.0,122.0,-0.33,0.92,0.05,-8.0,9.0,-11.0,ka
0.0,30.0,107.0,70.0,81.0,48.0,40.0,119.0,-0.34,0.92,0.05,-10.0,9.0,-12.0,ka
0.0,30.0,108.0,71.0,81.0,48.0,40.0,117.0,-0.35,0.91,0.05,-12.0,6.0,-11.0,ka
0.0,30.0,108.0,72.0,84.0,48.0,38.0,117.0,-0.36,0.91,0.06,-14.0,5.0,-10.0,ka
0.0,30.0,108.0,73.0,87.0,46.0,40.0,114.0,-0.36,0.91,0.07,-17.0,1.0,-9.0,ka
0.0,32.0,109.0,73.0,87.0,46.0,38.0,114.0,-0.37,0.9,0.09,-17.0,-2.0,-5.0,ka
0.0,30.0,109.0,73.0,84.0,46.0,40.0,114.0,-0.37,0.89,0.11,-16.0,-3.0,-1.0,ka
0.0,32.0,109.0,73.0,87.0,45.0,35.0,114.0,-0.37,0.88,0.12,-13.0,-6.0,3.0,ka
0.0,34.0,109.0,74.0,84.0,45.0,40.0,114.0,-0.36,0.89,0.13,-9.0,-7.0,7.0,ka
0.0,34.0,109.0,74.0,78.0,46.0,38.0,111.0,-0.35,0.89,0.14,-3.0,-4.0,10.0,ka
0.0,36.0,109.0,74.0,75.0,46.0,40.0,114.0,-0.33,0.89,0.14,2.0,-2.0,11.0,ka
0.0,36.0,110.0,74.0,72.0,48.0,42.0,114.0,-0.32,0.9,0.14,5.0,-1.0,11.0,ka
