idxUp,idxLow,midUp,midLow,ringUp,ringLow,thumb,pinky,ax,ay,az,gx,gy,gz,label
0.0,0.0,169.0,67.0,387.0,153.0,71.0,389.0,-0.41,0.87,0.2,0.0,1.0,-2.0,ek
0.0,0.0,167.0,61.0,360.0,141.0,71.0,366.0,-0.42,0.87,0.2,0.0,-2.0,0.0,ek
0.0,0.0,164.0,57.0,324.0,126.0,66.0,330.0,-0.42,0.87,0.2,0.0,-2.0,2.0,ek
0.0,0.0,160.0,52.0,309.0,113.0,62.0,300.0,-0.41,0.87,0.2,1.0,-3.0,4.0,ek
0.0,0.0,158.0,49.0,282.0,102.0,62.0,277.0,-0.41,0.88,0.2,2.0,-4.0,6.0,ek
0.0,0.0,159.0,43.0,249.0,88.0,62.0,249.0,-0.41,0.88,0.19,2.0,-6.0,8.0,ek
0.0,0.0,156.0,39.0,222.0,78.0,62.0,229.0,-0.4,0.88,0.19,2.0,-7.0,11.0,ek
0.0,0.0,153.0,34.0,189.0,63.0,59.0,201.0,-0.39,0.88,0.19,2.0,-7.0,12.0,ek
0.0,0.0,152.0,30.0,159.0,52.0,59.0,165.0,-0.37,0.89,0.19,2.0,-8.0,13.0,ek
0.0,0.0,149.0,27.0,135.0,40.0,64.0,139.0,-0.34,0.89,0.2,0.0,-6.0,14.0,ek
0.0,0.0,149.0,26.0,132.0,39.0,64.0,137.0,-0.32,0.9,0.21,-2.0,-6.0,14.0,ek
0.0,0.0,150.0,26.0,135.0,37.0,64.0,134.0,-0.3,0.9,0.21,-2.0,-4.0,13.0,ek
0.0,0.0,150.0,25.0,135.0,37.0,69.0,139.0,-0.28,0.91,0.22,-3.0,-6.0,12.0,ek
0.0,0.0,151.0,25.0,138.0,36.0,71.0,139.0,-0.26,0.91,0.22,-3.0,-5.0,11.0,ek
0.0,0.0,151.0,24.0,138.0,36.0,69.0,139.0,-0.25,0.91,0.23,-4.0,-4.0,9.0,ek
0.0,0.0,147.0,23.0,138.0,36.0,69.0,137.0,-0.23,0.92,0.24,-5.0,-2.0,7.0,ek
0.0,0.0,148.0,24.0,144.0,36.0,71.0,137.0,-0.22,0.92,0.24,-6.0,-2.0,6.0,ek
0.0,0.0,147.0,23.0,144.0,36.0,71.0,137.0,-0.21,0.92,0.25,-5.0,-2.0,5.0,ek
0.0,0.0,147.0,21.0,147.0,34.0,69.0,147.0,-0.21,0.92,0.25,-5.0,0.0,3.0,ek
0.0,0.0,147.0,23.0,147.0,34.0,66.0,145.0,-0.22,0.92,0.25,-4.0,0.0,3.0,ek
0.0,0.0,147.0,23.0,150.0,34.0,73.0,145.0,-0.22,0.92,0.25,-2.0,1.0,4.0,ek
0.0,0.0,146.0,24.0,144.0,36.0,71.0,147.0,-0.21,0.92,0.25,-1.0,1.0,4.0,ek
0.0,0.0,146.0,24.0,144.0,36.0,69.0,145.0,-0.21,0.92,0.24,-1.0,3.0,2.0,ek
0.0,0.0,146.0,24.0,141.0,36.0,71.0,145.0,-0.22,0.92,0.25,-2.0,2.0,2.0,ek
0.0,0.0,145.0,24.0,141.0,36.0,54.0,142.0,-0.22,0.91,0.25,-2.0,2.0,2.0,ek
0.0,0.0,145.0,25.0,141.0,36.0,62.0,145.0,-0.22,0.92,0.25,0.0,2.0,2.0,ek
0.0,0.0,144.0,25.0,135.0,36.0,62.0,142.0,-0.22,0.92,0.24,0.0,3.0,1.0,ek
0.0,0.0,144.0,25.0,132.0,36.0,64.0,142.0,-0.22,0.92,0.25,0.0,3.0,2.0,ek
0.0,0.0,144.0,26.0,132.0,36.0,64.0,142.0,-0.22,0.92,0.25,0.0,3.0,2.0,ek
0.0,0.0,144.0,24.0,135.0,36.0,71.0,150.0,-0.21,0.92,0.25,0.0,2.0,2.0,ek
0.0,0.0,144.0,24.0,132.0,36.0,66.0,147.0,-0.21,0.93,0.25,0.0,2.0,1.0,ek
0.0,0.0,147.0,24.0,132.0,36.0,66.0,145.0,-0.21,0.92,0.25,-1.0,2.0,1.0,ek
0.0,0.0,147.0,24.0,132.0,36.0,69.0,145.0,-0.21,0.92,0.25,-1.0,2.0,1.0,ek
0.0,0.0,147.0,24.0,132.0,36.0,66.0,145.0,-0.2,0.93,0.25,-1.0,2.0,0.0,ek
0.0,0.0,148.0,24.0,132.0,36.0,83.0,145.0,-0.2,0.93,0.25,-1.0,2.0,0.0,ek
0.0,0.0,148.0,25.0,129.0,36.0,85.0,147.0,-0.2,0.92,0.26,-2.0,3.0,1.0,ek
0.0,0.0,148.0,26.0,132.0,36.0,85.0,147.0,-0.2,0.92,0.26,-2.0,2.0,0.0,ek
0.0,0.0,147.0,27.0,129.0,36.0,85.0,147.0,-0.2,0.93,0.26,-2.0,1.0,0.0,ek
0.0,0.0,148.0,27.0,129.0,36.0,85.0,157.0,-0.2,0.92,0.26,-2.0,1.0,0.0,ek
0.0,0.0,148.0,29.0,129.0,36.0,83.0,155.0,-0.2,0.92,0.26,-2.0,0.0,0.0,ek
0.0,0.0,148.0,29.0,129.0,36.0,81.0,155.0,-0.2,0.92,0.25,-2.0,0.0,0.0,ek
0.0,0.0,145.0,30.0,126.0,36.0,83.0,162.0,-0.2,0.93,0.26,-2.0,1.0,0.0,ek
0.0,0.0,145.0,30.0,126.0,37.0,85.0,162.0,-0.2,0.92,0.26,-2.0,1.0,0.0,ek
0.0,0.0,145.0,30.0,129.0,37.0,85.0,162.0,-0.2,0.92,0.26,-2.0,2.0,0.0,ek
0.0,0.0,146.0,30.0,129.0,37.0,83.0,165.0,-0.2,0.93,0.26,-2.0,4.0,-1.0,ek
0.0,0.0,145.0,30.0,132.0,36.0,81.0,165.0,-0.2,0.93,0.26,-2.0,6.0,0.0,ek
0.0,0.0,146.0,29.0,132.0,36.0,83.0,165.0,-0.2,0.92,0.26,-2.0,11.0,0.0,ek
0.0,0.0,146.0,29.0,132.0,37.0,83.0,162.0,-0.19,0.93,0.25,-2.0,18.0,0.0,ek
0.0,0.0,141.0,28.0,132.0,37.0,81.0,150.0,-0.2,0.93,0.25,-2.0,26.0,0.0,ek
0.0,0.0,141.0,27.0,129.0,37.0,81.0,147.0,-0.21,0.93,0.25,-3.0,34.0,0.0,ek
0.0,0.0,141.0,27.0,132.0,37.0,81.0,150.0,-0.21,0.93,0.25,-3.0,40.0,1.0,ek
0.0,0.0,142.0,26.0,123.0,36.0,83.0,142.0,-0.22,0.93,0.23,-3.0,47.0,1.0,ek
0.0,0.0,145.0,26.0,126.0,36.0,83.0,142.0,-0.23,0.93,0.23,-3.0,53.0,0.0,ek
0.0,0.0,149.0,26.0,126.0,36.0,83.0,142.0,-0.24,0.93,0.22,-4.0,55.0,1.0,ek
0.0,0.0,147.0,26.0,123.0,36.0,88.0,142.0,-0.24,0.93,0.2,-3.0,61.0,1.0,ek
0.0,0.0,147.0,26.0,123.0,37.0,88.0,142.0,-0.25,0.93,0.19,-4.0,63.0,1.0,ek
0.0,0.0,148.0,26.0,123.0,37.0,90.0,142.0,-0.26,0.93,0.17,-4.0,63.0,1.0,ek
0.0,0.0,147.0,26.0,123.0,37.0,90.0,145.0,-0.28,0.93,0.16,-5.0,60.0,1.0,ek
0.0,0.0,152.0,26.0,120.0,37.0,93.0,145.0,-0.28,0.93,0.14,-4.0,57.0,1.0,ek
0.0,0.0,152.0,26.0,123.0,37.0,90.0,147.0,-0.28,0.93,0.12,-4.0,55.0,0.0,ek
0.0,0.0,151.0,26.0,123.0,37.0,93.0,147.0,-0.29,0.92,0.11,-4.0,53.0,0.0,ek
0.0,0.0,151.0,26.0,132.0,36.0,90.0,150.0,-0.29,0.92,0.1,-5.0,52.0,0.0,ek
0.0,0.0,148.0,24.0,132.0,36.0,85.0,152.0,-0.29,0.93,0.08,-5.0,51.0,0.0,ek
0.0,0.0,145.0,25.0,132.0,36.0,88.0,157.0,-0.3,0.93,0.07,-5.0,52.0,0.0,ek
0.0,0.0,145.0,26.0,132.0,36.0,85.0,155.0,-0.3,0.92,0.06,-6.0,50.0,0.0,ek
0.0,0.0,145.0,25.0,129.0,34.0,81.0,152.0,-0.31,0.92,0.05,-6.0,51.0,0.0,ek
0.0,0.0,145.0,24.0,129.0,34.0,73.0,152.0,-0.3,0.93,0.03,-6.0,51.0,0.0,ek
0.0,0.0,145.0,23.0,132.0,34.0,71.0,150.0,-0.31,0.93,0.02,-6.0,50.0,-1.0,ek
0.0,0.0,144.0,23.0,129.0,34.0,71.0,150.0,-0.31,0.92,0.01,-7.0,50.0,-1.0,ek
0.0,0.0,144.0,23.0,132.0,34.0,71.0,150.0,-0.31,0.92,0.0,-6.0,50.0,0.0,ek
0.0,0.0,145.0,23.0,129.0,30.0,73.0,145.0,-0.31,0.92,-0.01,-6.0,50.0,0.0,ek
0.0,0.0,144.0,23.0,129.0,30.0,69.0,145.0,-0.31,0.92,-0.02,-5.0,48.0,0.0,ek
0.0,0.0,145.0,24.0,129.0,30.0,71.0,145.0,-0.31,0.92,-0.03,-5.0,47.0,0.0,ek
0.0,0.0,144.0,23.0,126.0,30.0,69.0,142.0,-0.31,0.92,-0.04,-5.0,45.0,1.0,ek
0.0,0.0,144.0,21.0,126.0,30.0,64.0,142.0,-0.3,0.92,-0.06,-4.0,44.0,1.0,ek
0.0,0.0,144.0,21.0,129.0,30.0,64.0,145.0,-0.3,0.92,-0.06,-4.0,41.0,1.0,ek
0.0,0.0,144.0,21.0,126.0,30.0,69.0,142.0,-0.3,0.92,-0.07,-4.0,38.0,1.0,ek
0.0,0.0,144.0,21.0,126.0,30.0,69.0,145.0,-0.29,0.92,-0.08,-3.0,37.0,1.0,ek
0.0,0.0,144.0,21.0,126.0,30.0,66.0,142.0,-0.3,0.92,-0.09,-3.0,35.0,1.0,ek
0.0,0.0,145.0,20.0,126.0,28.0,69.0,142.0,-0.29,0.92,-0.1,-4.0,32.0,1.0,ek
0.0,0.0,145.0,20.0,126.0,34.0,66.0,142.0,-0.28,0.92,-0.1,-3.0,28.0,1.0,ek
0.0,0.0,145.0,20.0,129.0,33.0,66.0,139.0,-0.27,0.93,-0.11,-2.0,22.0,0.0,ek
0.0,0.0,145.0,20.0,129.0,33.0,64.0,137.0,-0.28,0.93,-0.11,-3.0,15.0,0.0,ek
0.0,0.0,145.0,20.0,132.0,33.0,59.0,132.0,-0.28,0.92,-0.12,-2.0,5.0,0.0,ek
0.0,0.0,145.0,20.0,132.0,34.0,64.0,132.0,-0.27,0.93,-0.12,0.0,-5.0,-1.0,ek
0.0,0.0,144.0,20.0,132.0,34.0,62.0,129.0,-0.27,0.93,-0.12,0.0,-12.0,-1.0,ek
0.0,0.0,145.0,20.0,135.0,34.0,59.0,132.0,-0.27,0.93,-0.11,0.0,-23.0,-1.0,ek
0.0,0.0,145.0,20.0,135.0,34.0,64.0,129.0,-0.28,0.93,-0.1,1.0,-27.0,0.0,ek
0.0,0.0,144.0,20.0,138.0,34.0,62.0,132.0,-0.27,0.93,-0.1,3.0,-41.0,0.0,ek
0.0,0.0,144.0,20.0,138.0,33.0,59.0,127.0,-0.29,0.93,-0.08,3.0,-44.0,0.0,ek
0.0,0.0,143.0,20.0,135.0,34.0,59.0,127.0,-0.28,0.93,-0.08,3.0,-57.0,0.0,ek
0.0,0.0,143.0,21.0,135.0,34.0,62.0,129.0,-0.3,0.93,-0.06,4.0,-57.0,0.0,ek
0.0,0.0,143.0,21.0,129.0,34.0,64.0,129.0,-0.28,0.93,-0.06,5.0,-65.0,1.0,ek
0.0,0.0,143.0,21.0,129.0,34.0,66.0,132.0,-0.3,0.93,-0.03,5.0,-63.0,2.0,ek
0.0,0.0,143.0,21.0,129.0,34.0,69.0,132.0,-0.28,0.94,-0.03,7.0,-67.0,2.0,ek
0.0,2.0,143.0,21.0,129.0,33.0,71.0,134.0,-0.29,0.94,-0.01,9.0,-67.0,3.0,ek
0.0,0.0,143.0,23.0,132.0,33.0,73.0,134.0,-0.28,0.94,-0.01,9.0,-65.0,4.0,ek
0.0,0.0,142.0,24.0,129.0,34.0,71.0,134.0,-0.28,0.94,-0.0,9.0,-71.0,5.0,ek
0.0,0.0,144.0,24.0,129.0,36.0,71.0,134.0,-0.27,0.94,0.01,9.0,-66.0,7.0,ek
0.0,0.0,143.0,23.0,129.0,37.0,71.0,139.0,-0.26,0.94,0.02,11.0,-74.0,7.0,ek
0.0,0.0,144.0,26.0,129.0,37.0,71.0,139.0,-0.26,0.94,0.03,9.0,-65.0,7.0,ek
0.0,0.0,144.0,26.0,129.0,37.0,73.0,137.0,-0.24,0.94,0.04,9.0,-71.0,9.0,ek
0.0,0.0,144.0,27.0,126.0,37.0,71.0,137.0,-0.25,0.94,0.05,9.0,-62.0,8.0,ek
0.0,0.0,145.0,28.0,129.0,33.0,73.0,142.0,-0.22,0.95,0.05,8.0,-65.0,7.0,ek
0.0,0.0,145.0,28.0,129.0,33.0,93.0,139.0,-0.23,0.94,0.07,8.0,-59.0,7.0,ek
0.0,0.0,145.0,29.0,129.0,33.0,95.0,142.0,-0.2,0.94,0.07,6.0,-63.0,7.0,ek
0.0,0.0,146.0,29.0,126.0,33.0,95.0,139.0,-0.21,0.94,0.08,6.0,-58.0,4.0,ek
0.0,0.0,146.0,29.0,126.0,31.0,95.0,139.0,-0.18,0.95,0.08,5.0,-56.0,3.0,ek
0.0,0.0,145.0,30.0,126.0,30.0,95.0,145.0,-0.19,0.95,0.1,6.0,-53.0,2.0,ek
0.0,0.0,145.0,32.0,123.0,30.0,93.0,145.0,-0.17,0.95,0.09,5.0,-50.0,2.0,ek
0.0,0.0,145.0,30.0,129.0,30.0,93.0,142.0,-0.17,0.95,0.1,7.0,-51.0,1.0,ek
0.0,0.0,144.0,30.0,129.0,30.0,90.0,139.0,-0.15,0.96,0.1,6.0,-46.0,0.0,ek
0.0,0.0,141.0,30.0,132.0,28.0,100.0,142.0,-0.15,0.96,0.11,6.0,-49.0,0.0,ek
0.0,0.0,141.0,29.0,129.0,34.0,100.0,139.0,-0.14,0.95,0.1,5.0,-46.0,0.0,ek
0.0,0.0,141.0,30.0,129.0,34.0,81.0,142.0,-0.13,0.96,0.1,4.0,-45.0,0.0,ek
0.0,0.0,141.0,29.0,129.0,33.0,81.0,145.0,-0.13,0.96,0.11,4.0,-42.0,1.0,ek
0.0,0.0,140.0,29.0,129.0,36.0,81.0,142.0,-0.12,0.96,0.12,4.0,-42.0,3.0,ek
0.0,0.0,141.0,29.0,129.0,36.0,81.0,142.0,-0.11,0.96,0.12,5.0,-42.0,2.0,ek
0.0,0.0,141.0,29.0,129.0,36.0,83.0,147.0,-0.11,0.96,0.12,5.0,-40.0,2.0,ek
0.0,0.0,141.0,29.0,129.0,36.0,88.0,145.0,-0.1,0.97,0.12,5.0,-39.0,3.0,ek
0.0,0.0,139.0,28.0,126.0,37.0,93.0,147.0,-0.09,0.97,0.12,4.0,-37.0,3.0,ek
0.0,0.0,140.0,28.0,129.0,36.0,78.0,150.0,-0.09,0.97,0.12,5.0,-38.0,3.0,ek
0.0,0.0,143.0,28.0,129.0,36.0,71.0,147.0,-0.09,0.97,0.12,4.0,-36.0,3.0,ek
0.0,0.0,143.0,28.0,129.0,34.0,69.0,147.0,-0.07,0.98,0.12,5.0,-37.0,5.0,ek
0.0,0.0,143.0,28.0,129.0,36.0,69.0,145.0,-0.07,0.97,0.12,6.0,-37.0,4.0,ek
0.0,0.0,143.0,28.0,117.0,36.0,69.0,142.0,-0.05,0.98,0.11,5.0,-35.0,3.0,ek
0.0,0.0,143.0,28.0,111.0,34.0,71.0,145.0,-0.05,0.98,0.11,5.0,-34.0,3.0,ek
0.0,0.0,142.0,27.0,108.0,34.0,71.0,142.0,-0.04,0.98,0.1,4.0,-33.0,4.0,ek
0.0,0.0,143.0,28.0,111.0,34.0,71.0,134.0,-0.03,0.98,0.1,4.0,-33.0,3.0,ek
0.0,0.0,142.0,27.0,111.0,34.0,69.0,137.0,-0.03,0.98,0.1,4.0,-33.0,3.0,ek
0.0,0.0,144.0,28.0,114.0,34.0,64.0,137.0,-0.02,0.98,0.09,4.0,-33.0,4.0,ek
0.0,0.0,148.0,28.0,111.0,34.0,85.0,134.0,-0.01,0.98,0.09,4.0,-32.0,4.0,ek
0.0,0.0,148.0,28.0,108.0,36.0,85.0,134.0,-0.01,0.98,0.08,4.0,-31.0,4.0,ek
0.0,0.0,146.0,27.0,108.0,36.0,81.0,142.0,-0.0,0.98,0.08,3.0,-29.0,3.0,ek
0.0,0.0,147.0,27.0,108.0,36.0,78.0,142.0,0.01,0.98,0.07,3.0,-30.0,4.0,ek
0.0,0.0,148.0,25.0,117.0,36.0,78.0,145.0,0.02,0.98,0.07,3.0,-30.0,4.0,ek
0.0,0.0,148.0,24.0,114.0,36.0,76.0,142.0,0.02,0.98,0.07,2.0,-26.0,4.0,ek
0.0,0.0,150.0,25.0,117.0,36.0,76.0,147.0,0.02,0.98,0.07,2.0,-25.0,3.0,ek
0.0,0.0,150.0,24.0,117.0,36.0,76.0,147.0,0.03,0.98,0.07,3.0,-24.0,4.0,ek
0.0,0.0,151.0,24.0,114.0,36.0,76.0,145.0,0.04,0.98,0.06,1.0,-24.0,2.0,ek
0.0,0.0,151.0,21.0,114.0,36.0,76.0,145.0,0.04,0.98,0.06,1.0,-23.0,1.0,ek
0.0,0.0,149.0,22.0,114.0,36.0,73.0,147.0,0.04,0.98,0.06,1.0,-22.0,1.0,ek
0.0,0.0,148.0,21.0,117.0,36.0,64.0,145.0,0.05,0.98,0.06,0.0,-22.0,0.0,ek
0.0,0.0,151.0,21.0,117.0,36.0,71.0,137.0,0.05,0.98,0.06,0.0,-20.0,0.0,ek
0.0,0.0,150.0,21.0,120.0,37.0,71.0,134.0,0.04,0.98,0.06,-2.0,-17.0,-1.0,ek
0.0,0.0,151.0,23.0,126.0,37.0,69.0,134.0,0.04,0.98,0.06,-2.0,-15.0,-1.0,ek
0.0,0.0,149.0,22.0,126.0,37.0,66.0,129.0,0.04,0.98,0.06,-3.0,-14.0,-2.0,ek
0.0,0.0,149.0,20.0,129.0,36.0,64.0,129.0,0.05,0.98,0.06,-3.0,-9.0,-3.0,ek
0.0,0.0,150.0,20.0,126.0,37.0,64.0,129.0,0.04,0.98,0.06,-5.0,-5.0,-3.0,ek
0.0,0.0,150.0,20.0,129.0,36.0,66.0,134.0,0.04,0.98,0.07,-4.0,0.0,-2.0,ek
0.0,0.0,151.0,21.0,129.0,36.0,64.0,132.0,0.04,0.98,0.07,-5.0,4.0,-2.0,ek
0.0,0.0,150.0,20.0,126.0,36.0,64.0,132.0,0.04,0.98,0.08,-6.0,9.0,-3.0,ek
0.0,0.0,151.0,21.0,126.0,36.0,71.0,134.0,0.03,0.98,0.08,-6.0,13.0,-2.0,ek
0.0,0.0,150.0,21.0,123.0,36.0,73.0,137.0,0.04,0.97,0.09,-8.0,20.0,-3.0,ek
0.0,0.0,150.0,21.0,123.0,37.0,76.0,137.0,0.04,0.98,0.09,-7.0,24.0,-4.0,ek
0.0,0.0,150.0,20.0,120.0,37.0,78.0,137.0,0.03,0.98,0.1,-7.0,27.0,-4.0,ek
0.0,0.0,151.0,20.0,120.0,37.0,81.0,139.0,0.02,0.98,0.1,-8.0,29.0,-5.0,ek
0.0,0.0,150.0,22.0,120.0,37.0,78.0,137.0,0.01,0.98,0.11,-8.0,28.0,-5.0,ek
0.0,0.0,149.0,21.0,117.0,37.0,76.0,134.0,0.01,0.98,0.11,-9.0,31.0,-6.0,ek
0.0,0.0,149.0,21.0,117.0,37.0,71.0,134.0,-0.01,0.97,0.12,-10.0,33.0,-7.0,ek
0.0,0.0,147.0,21.0,117.0,37.0,71.0,134.0,-0.01,0.97,0.12,-11.0,34.0,-8.0,ek
0.0,0.0,147.0,21.0,123.0,37.0,69.0,134.0,-0.04,0.97,0.14,-11.0,36.0,-8.0,ek
0.0,0.0,147.0,20.0,120.0,37.0,69.0,132.0,-0.04,0.97,0.14,-12.0,37.0,-9.0,ek
0.0,0.0,146.0,20.0,120.0,36.0,64.0,127.0,-0.06,0.97,0.16,-11.0,35.0,-9.0,ek
0.0,0.0,147.0,23.0,117.0,36.0,64.0,127.0,-0.08,0.96,0.16,-12.0,35.0,-10.0,ek
0.0,0.0,147.0,23.0,120.0,36.0,64.0,127.0,-0.09,0.96,0.17,-13.0,38.0,-10.0,ek
0.0,0.0,146.0,23.0,123.0,36.0,66.0,127.0,-0.11,0.96,0.18,-13.0,39.0,-10.0,ek
0.0,0.0,147.0,23.0,120.0,33.0,66.0,129.0,-0.11,0.96,0.17,-14.0,42.0,-11.0,ek
0.0,0.0,147.0,23.0,126.0,31.0,64.0,129.0,-0.14,0.95,0.19,-14.0,41.0,-11.0,ek
0.0,0.0,146.0,23.0,123.0,31.0,62.0,129.0,-0.13,0.95,0.19,-15.0,38.0,-10.0,ek
0.0,0.0,146.0,23.0,120.0,31.0,62.0,129.0,-0.17,0.94,0.21,-15.0,39.0,-10.0,ek
0.0,0.0,148.0,23.0,120.0,31.0,66.0,129.0,-0.16,0.94,0.2,-15.0,36.0,-9.0,ek
0.0,0.0,148.0,23.0,120.0,31.0,66.0,132.0,-0.19,0.93,0.22,-16.0,38.0,-9.0,ek
0.0,0.0,147.0,23.0,126.0,31.0,78.0,134.0,-0.2,0.93,0.22,-16.0,35.0,-8.0,ek
0.0,0.0,147.0,19.0,126.0,31.0,78.0,134.0,-0.22,0.93,0.23,-17.0,38.0,-7.0,ek
0.0,0.0,147.0,20.0,126.0,31.0,78.0,137.0,-0.23,0.92,0.23,-16.0,33.0,-7.0,ek
0.0,0.0,147.0,19.0,126.0,31.0,76.0,137.0,-0.24,0.92,0.24,-17.0,33.0,-6.0,ek
0.0,0.0,147.0,20.0,123.0,34.0,78.0,137.0,-0.25,0.91,0.25,-16.0,30.0,-5.0,ek
0.0,0.0,151.0,20.0,126.0,34.0,81.0,137.0,-0.25,0.91,0.25,-16.0,32.0,-5.0,ek
0.0,0.0,150.0,20.0,129.0,33.0,83.0,134.0,-0.27,0.91,0.26,-16.0,33.0,-4.0,ek
0.0,0.0,150.0,20.0,129.0,33.0,83.0,132.0,-0.28,0.9,0.26,-16.0,35.0,-4.0,ek
0.0,0.0,149.0,19.0,141.0,34.0,81.0,129.0,-0.29,0.9,0.26,-16.0,36.0,-4.0,ek
0.0,0.0,149.0,19.0,144.0,34.0,78.0,127.0,-0.3,0.89,0.26,-16.0,37.0,-4.0,ek
0.0,0.0,149.0,19.0,141.0,34.0,69.0,127.0,-0.31,0.88,0.26,-18.0,42.0,-5.0,ek
0.0,0.0,148.0,15.0,141.0,34.0,64.0,124.0,-0.33,0.88,0.26,-17.0,41.0,-5.0,ek
0.0,0.0,149.0,15.0,141.0,34.0,66.0,124.0,-0.34,0.87,0.26,-19.0,48.0,-6.0,ek
0.0,0.0,148.0,14.0,153.0,34.0,66.0,124.0,-0.36,0.87,0.26,-18.0,48.0,-6.0,ek
0.0,0.0,148.0,14.0,156.0,34.0,66.0,122.0,-0.38,0.86,0.25,-19.0,52.0,-7.0,ek
0.0,0.0,146.0,14.0,153.0,34.0,66.0,124.0,-0.4,0.85,0.25,-18.0,50.0,-6.0,ek
0.0,0.0,146.0,14.0,156.0,34.0,71.0,127.0,-0.41,0.85,0.24,-19.0,53.0,-7.0,ek
0.0,0.0,146.0,14.0,153.0,36.0,71.0,127.0,-0.42,0.85,0.24,-18.0,50.0,-6.0,ek
0.0,0.0,144.0,14.0,141.0,34.0,69.0,127.0,-0.44,0.84,0.23,-19.0,54.0,-7.0,ek
0.0,0.0,145.0,14.0,135.0,36.0,69.0,127.0,-0.45,0.83,0.22,-17.0,51.0,-7.0,ek
0.0,0.0,144.0,15.0,135.0,34.0,71.0,129.0,-0.47,0.82,0.21,-17.0,52.0,-7.0,ek
0.0,0.0,145.0,19.0,135.0,34.0,71.0,129.0,-0.48,0.82,0.2,-17.0,52.0,-8.0,ek
0.0,0.0,145.0,19.0,135.0,33.0,71.0,132.0,-0.5,0.81,0.19,-16.0,50.0,-8.0,ek
0.0,0.0,146.0,19.0,123.0,33.0,71.0,132.0,-0.51,0.81,0.17,-17.0,51.0,-8.0,ek
0.0,0.0,145.0,20.0,123.0,33.0,69.0,132.0,-0.53,0.8,0.16,-15.0,50.0,-8.0,ek
0.0,0.0,145.0,20.0,123.0,33.0,69.0,132.0,-0.54,0.79,0.14,-16.0,52.0,-9.0,ek
0.0,0.0,145.0,20.0,120.0,33.0,66.0,129.0,-0.55,0.79,0.13,-15.0,50.0,-10.0,ek
0.0,0.0,144.0,20.0,126.0,31.0,64.0,129.0,-0.56,0.77,0.11,-15.0,51.0,-10.0,ek
0.0,0.0,146.0,20.0,129.0,30.0,66.0,132.0,-0.58,0.77,0.09,-14.0,49.0,-11.0,ek
0.0,0.0,146.0,20.0,129.0,30.0,69.0,132.0,-0.59,0.76,0.07,-15.0,48.0,-12.0,ek
0.0,0.0,146.0,19.0,129.0,30.0,62.0,129.0,-0.6,0.75,0.06,-14.0,47.0,-12.0,ek
0.0,0.0,146.0,19.0,126.0,30.0,64.0,129.0,-0.62,0.75,0.04,-13.0,47.0,-11.0,ek
0.0,0.0,145.0,18.0,129.0,31.0,62.0,127.0,-0.62,0.74,0.02,-12.0,45.0,-10.0,ek
0.0,0.0,145.0,18.0,129.0,33.0,62.0,127.0,-0.63,0.73,0.0,-10.0,44.0,-9.0,ek
0.0,0.0,145.0,17.0,132.0,33.0,62.0,129.0,-0.63,0.73,-0.01,-10.0,42.0,-9.0,ek
0.0,0.0,145.0,17.0,129.0,33.0,62.0,132.0,-0.64,0.73,-0.03,-8.0,40.0,-8.0,ek
0.0,0.0,146.0,17.0,126.0,33.0,62.0,134.0,-0.65,0.72,-0.05,-8.0,37.0,-7.0,ek
0.0,0.0,146.0,16.0,123.0,34.0,62.0,134.0,-0.66,0.72,-0.06,-7.0,33.0,-6.0,ek
0.0,0.0,147.0,16.0,120.0,34.0,64.0,134.0,-0.66,0.72,-0.07,-6.0,27.0,-4.0,ek
0.0,0.0,147.0,16.0,126.0,33.0,64.0,134.0,-0.66,0.72,-0.08,-4.0,20.0,-2.0,ek
0.0,0.0,147.0,16.0,126.0,27.0,66.0,132.0,-0.66,0.72,-0.09,-2.0,10.0,0.0,ek
0.0,0.0,146.0,15.0,126.0,27.0,62.0,129.0,-0.66,0.72,-0.09,2.0,-10.0,3.0,ek
0.0,0.0,146.0,14.0,126.0,25.0,62.0,127.0,-0.65,0.72,-0.08,3.0,-18.0,5.0,ek
0.0,0.0,146.0,14.0,126.0,25.0,64.0,124.0,-0.65,0.73,-0.06,8.0,-38.0,7.0,ek
0.0,0.0,146.0,14.0,123.0,25.0,64.0,122.0,-0.65,0.73,-0.04,9.0,-41.0,8.0,ek
0.0,0.0,146.0,14.0,123.0,24.0,64.0,122.0,-0.62,0.74,-0.02,12.0,-58.0,10.0,ek
0.0,0.0,145.0,14.0,120.0,24.0,64.0,119.0,-0.62,0.75,0.01,13.0,-60.0,11.0,ek
0.0,0.0,145.0,15.0,120.0,24.0,64.0,117.0,-0.59,0.76,0.04,15.0,-73.0,13.0,ek
0.0,0.0,144.0,15.0,120.0,24.0,62.0,117.0,-0.58,0.76,0.07,16.0,-76.0,13.0,ek
0.0,0.0,144.0,16.0,102.0,24.0,66.0,119.0,-0.55,0.77,0.1,17.0,-83.0,15.0,ek
0.0,0.0,145.0,16.0,102.0,30.0,66.0,117.0,-0.54,0.78,0.14,17.0,-81.0,14.0,ek
0.0,0.0,145.0,17.0,102.0,30.0,69.0,119.0,-0.51,0.79,0.16,16.0,-75.0,14.0,ek
0.0,0.0,146.0,17.0,102.0,31.0,73.0,119.0,-0.49,0.8,0.19,16.0,-72.0,12.0,ek
0.0,0.0,145.0,17.0,102.0,30.0,71.0,119.0,-0.47,0.81,0.21,13.0,-63.0,11.0,ek
0.0,0.0,145.0,17.0,99.0,30.0,69.0,122.0,-0.44,0.82,0.23,13.0,-66.0,11.0,ek
0.0,0.0,145.0,18.0,99.0,33.0,73.0,122.0,-0.44,0.82,0.25,10.0,-58.0,10.0,ek
0.0,0.0,145.0,17.0,96.0,33.0,73.0,119.0,-0.4,0.83,0.27,11.0,-63.0,10.0,ek
0.0,0.0,145.0,18.0,99.0,33.0,71.0,119.0,-0.39,0.84,0.29,8.0,-58.0,9.0,ek
0.0,0.0,145.0,19.0,93.0,33.0,76.0,114.0,-0.36,0.85,0.31,8.0,-58.0,9.0,ek
0.0,0.0,145.0,16.0,111.0,33.0,71.0,114.0,-0.34,0.85,0.32,6.0,-55.0,9.0,ek
0.0,0.0,149.0,16.0,114.0,33.0,66.0,117.0,-0.31,0.86,0.33,6.0,-56.0,9.0,ek
0.0,0.0,149.0,16.0,111.0,34.0,71.0,119.0,-0.3,0.87,0.34,3.0,-52.0,9.0,ek
0.0,0.0,148.0,16.0,111.0,33.0,69.0,119.0,-0.26,0.87,0.35,1.0,-55.0,10.0,ek
0.0,0.0,148.0,16.0,114.0,34.0,71.0,122.0,-0.24,0.87,0.37,-2.0,-50.0,11.0,ek
0.0,0.0,145.0,16.0,114.0,34.0,71.0,119.0,-0.2,0.87,0.38,-4.0,-52.0,12.0,ek
0.0,0.0,144.0,16.0,111.0,34.0,64.0,117.0,-0.17,0.88,0.4,-7.0,-45.0,12.0,ek
0.0,0.0,145.0,17.0,120.0,34.0,66.0,119.0,-0.14,0.87,0.41,-8.0,-42.0,13.0,ek
0.0,0.0,146.0,17.0,120.0,34.0,69.0,122.0,-0.12,0.87,0.42,-11.0,-35.0,13.0,ek
0.0,0.0,146.0,18.0,126.0,34.0,69.0,127.0,-0.1,0.87,0.44,-12.0,-34.0,12.0,ek
0.0,0.0,146.0,21.0,120.0,34.0,66.0,122.0,-0.07,0.87,0.45,-14.0,-26.0,11.0,ek
0.0,0.0,143.0,21.0,129.0,33.0,76.0,122.0,-0.05,0.87,0.48,-13.0,-32.0,12.0,ek
0.0,0.0,142.0,21.0,135.0,33.0,71.0,122.0,-0.01,0.86,0.49,-14.0,-25.0,11.0,ek
0.0,0.0,143.0,22.0,132.0,34.0,69.0,122.0,-0.0,0.86,0.51,-12.0,-26.0,10.0,ek
0.0,0.0,143.0,22.0,132.0,34.0,71.0,119.0,0.02,0.86,0.52,-10.0,-25.0,9.0,ek
0.0,0.0,146.0,22.0,135.0,34.0,69.0,124.0,0.02,0.85,0.53,-9.0,-22.0,8.0,ek
0.0,0.0,146.0,23.0,138.0,33.0,71.0,127.0,0.03,0.85,0.53,-6.0,-26.0,8.0,ek
0.0,0.0,146.0,23.0,138.0,33.0,69.0,127.0,0.05,0.85,0.53,-5.0,-26.0,9.0,ek
0.0,0.0,147.0,23.0,138.0,33.0,71.0,127.0,0.07,0.85,0.54,-5.0,-29.0,11.0,ek
0.0,0.0,147.0,23.0,135.0,34.0,71.0,124.0,0.1,0.84,0.54,-5.0,-28.0,12.0,ek
0.0,0.0,147.0,23.0,135.0,33.0,71.0,127.0,0.12,0.84,0.54,-4.0,-32.0,14.0,ek
0.0,0.0,147.0,23.0,126.0,34.0,69.0,122.0,0.14,0.83,0.53,-7.0,-25.0,15.0,ek
0.0,0.0,146.0,23.0,120.0,34.0,71.0,122.0,0.16,0.82,0.54,-7.0,-30.0,17.0,ek
0.0,0.0,146.0,22.0,126.0,33.0,71.0,122.0,0.19,0.81,0.53,-8.0,-28.0,18.0,ek
0.0,0.0,146.0,23.0,123.0,34.0,71.0,122.0,0.23,0.81,0.53,-9.0,-27.0,19.0,ek
0.0,0.0,147.0,23.0,123.0,34.0,69.0,122.0,0.27,0.8,0.53,-9.0,-29.0,19.0,ek
0.0,0.0,145.0,23.0,120.0,34.0,71.0,119.0,0.31,0.79,0.53,-9.0,-25.0,17.0,ek
0.0,0.0,144.0,22.0,120.0,34.0,66.0,117.0,0.34,0.78,0.53,-8.0,-16.0,13.0,ek
0.0,0.0,143.0,21.0,120.0,34.0,64.0,119.0,0.36,0.78,0.53,-6.0,-9.0,9.0,ek
0.0,0.0,144.0,23.0,123.0,34.0,64.0,119.0,0.34,0.77,0.54,-2.0,3.0,3.0,ek
0.0,0.0,143.0,21.0,138.0,34.0,64.0,117.0,0.35,0.77,0.54,0.0,8.0,0.0,ek
0.0,0.0,143.0,21.0,138.0,36.0,64.0,122.0,0.32,0.76,0.54,4.0,24.0,-7.0,ek
0.0,0.0,143.0,21.0,138.0,34.0,57.0,122.0,0.32,0.77,0.53,9.0,32.0,-11.0,ek
0.0,0.0,140.0,21.0,135.0,36.0,57.0,122.0,0.28,0.78,0.54,15.0,40.0,-16.0,ek
0.0,0.0,140.0,20.0,138.0,34.0,52.0,122.0,0.25,0.8,0.53,21.0,45.0,-21.0,ek
0.0,0.0,140.0,20.0,138.0,34.0,54.0,122.0,0.19,0.81,0.52,27.0,49.0,-23.0,ek
0.0,0.0,141.0,20.0,138.0,34.0,57.0,122.0,0.15,0.83,0.5,31.0,48.0,-24.0,ek
0.0,0.0,141.0,20.0,138.0,33.0,45.0,122.0,0.1,0.85,0.49,35.0,42.0,-23.0,ek
0.0,0.0,142.0,20.0,138.0,34.0,45.0,124.0,0.06,0.87,0.46,36.0,38.0,-23.0,ek
0.0,0.0,141.0,19.0,138.0,34.0,42.0,124.0,0.06,0.89,0.42,36.0,31.0,-20.0,ek
0.0,0.0,142.0,19.0,117.0,34.0,50.0,124.0,0.02,0.9,0.4,35.0,30.0,-20.0,ek
0.0,0.0,142.0,20.0,123.0,33.0,45.0,124.0,0.02,0.92,0.36,34.0,19.0,-18.0,ek
0.0,0.0,143.0,20.0,123.0,33.0,50.0,124.0,-0.02,0.93,0.34,31.0,16.0,-15.0,ek
0.0,0.0,146.0,19.0,120.0,33.0,52.0,124.0,-0.02,0.94,0.3,26.0,10.0,-13.0,ek
0.0,0.0,146.0,19.0,123.0,33.0,54.0,127.0,-0.03,0.94,0.29,22.0,8.0,-10.0,ek
0.0,0.0,146.0,19.0,123.0,33.0,57.0,127.0,-0.03,0.95,0.26,17.0,6.0,-9.0,ek
0.0,0.0,147.0,19.0,120.0,33.0,57.0,124.0,-0.04,0.95,0.25,14.0,10.0,-9.0,ek
0.0,0.0,145.0,20.0,123.0,33.0,69.0,124.0,-0.05,0.95,0.23,11.0,10.0,-8.0,ek
0.0,0.0,145.0,19.0,120.0,33.0,71.0,127.0,-0.06,0.95,0.23,12.0,11.0,-7.0,ek
0.0,0.0,145.0,19.0,123.0,33.0,69.0,127.0,-0.07,0.95,0.2,9.0,16.0,-9.0,ek
0.0,0.0,143.0,19.0,123.0,33.0,64.0,129.0,-0.08,0.96,0.19,10.0,20.0,-10.0,ek
0.0,0.0,144.0,19.0,123.0,33.0,71.0,129.0,-0.1,0.95,0.18,10.0,25.0,-11.0,ek
0.0,0.0,144.0,20.0,123.0,34.0,66.0,142.0,-0.1,0.96,0.15,11.0,32.0,-13.0,ek
0.0,0.0,143.0,19.0,123.0,33.0,64.0,139.0,-0.12,0.96,0.14,13.0,35.0,-14.0,ek
0.0,0.0,142.0,19.0,123.0,33.0,64.0,137.0,-0.14,0.95,0.11,14.0,44.0,-16.0,ek
0.0,0.0,142.0,19.0,120.0,33.0,64.0,139.0,-0.15,0.96,0.09,14.0,45.0,-16.0,ek
0.0,0.0,142.0,18.0,120.0,33.0,62.0,145.0,-0.18,0.95,0.07,13.0,52.0,-17.0,ek
0.0,0.0,143.0,18.0,117.0,33.0,64.0,145.0,-0.19,0.95,0.04,11.0,56.0,-16.0,ek
0.0,0.0,144.0,18.0,117.0,33.0,62.0,145.0,-0.21,0.95,0.02,10.0,57.0,-16.0,ek
0.0,0.0,145.0,18.0,114.0,30.0,64.0,145.0,-0.24,0.95,0.01,9.0,59.0,-14.0,ek
0.0,0.0,145.0,17.0,114.0,30.0,62.0,142.0,-0.24,0.95,-0.02,7.0,56.0,-12.0,ek
0.0,0.0,144.0,17.0,114.0,30.0,62.0,142.0,-0.26,0.95,-0.03,5.0,56.0,-10.0,ek
0.0,0.0,143.0,16.0,111.0,30.0,62.0,132.0,-0.26,0.94,-0.05,3.0,54.0,-7.0,ek
0.0,0.0,143.0,16.0,111.0,30.0,64.0,132.0,-0.26,0.94,-0.07,1.0,51.0,-5.0,ek
0.0,0.0,143.0,15.0,111.0,30.0,64.0,132.0,-0.27,0.94,-0.07,0.0,46.0,-3.0,ek
0.0,0.0,143.0,15.0,114.0,28.0,64.0,129.0,-0.26,0.94,-0.09,-2.0,45.0,-3.0,ek
0.0,0.0,144.0,15.0,114.0,28.0,64.0,127.0,-0.25,0.94,-0.09,-3.0,40.0,-2.0,ek
0.0,0.0,142.0,14.0,114.0,28.0,59.0,124.0,-0.25,0.94,-0.1,-3.0,42.0,-2.0,ek
0.0,0.0,142.0,14.0,120.0,28.0,62.0,124.0,-0.24,0.93,-0.11,-4.0,44.0,-1.0,ek
0.0,0.0,140.0,13.0,120.0,31.0,59.0,122.0,-0.23,0.93,-0.12,-3.0,41.0,-1.0,ek
0.0,0.0,143.0,13.0,123.0,31.0,64.0,124.0,-0.23,0.93,-0.13,-3.0,44.0,-2.0,ek
0.0,0.0,142.0,13.0,123.0,31.0,59.0,124.0,-0.22,0.93,-0.14,-2.0,42.0,-2.0,ek
0.0,0.0,143.0,13.0,126.0,30.0,59.0,127.0,-0.23,0.93,-0.15,-2.0,41.0,-2.0,ek
0.0,0.0,143.0,13.0,126.0,30.0,59.0,132.0,-0.22,0.93,-0.16,-3.0,42.0,-2.0,ek
0.0,0.0,143.0,13.0,129.0,28.0,59.0,129.0,-0.21,0.93,-0.17,-3.0,41.0,-1.0,ek
0.0,0.0,143.0,12.0,129.0,30.0,57.0,129.0,-0.21,0.93,-0.17,-2.0,42.0,-2.0,ek
0.0,0.0,143.0,12.0,129.0,31.0,57.0,129.0,-0.19,0.93,-0.18,-3.0,42.0,-1.0,ek
0.0,0.0,143.0,11.0,135.0,31.0,62.0,132.0,-0.2,0.93,-0.19,-2.0,43.0,-2.0,ek
0.0,0.0,143.0,11.0,132.0,31.0,59.0,134.0,-0.19,0.93,-0.2,-3.0,43.0,-2.0,ek
0.0,0.0,142.0,11.0,132.0,31.0,57.0,134.0,-0.18,0.93,-0.2,-3.0,42.0,-2.0,ek
0.0,0.0,140.0,10.0,132.0,31.0,57.0,134.0,-0.18,0.93,-0.21,-2.0,41.0,-2.0,ek
0.0,0.0,141.0,10.0,132.0,31.0,62.0,134.0,-0.16,0.94,-0.22,-2.0,40.0,-2.0,ek
0.0,0.0,140.0,10.0,132.0,31.0,64.0,132.0,-0.15,0.94,-0.22,-2.0,39.0,-2.0,ek
0.0,0.0,140.0,10.0,132.0,34.0,66.0,129.0,-0.15,0.94,-0.23,-2.0,40.0,-3.0,ek
0.0,0.0,140.0,10.0,132.0,36.0,64.0,129.0,-0.15,0.94,-0.23,-2.0,37.0,-2.0,ek
0.0,0.0,141.0,10.0,132.0,36.0,66.0,129.0,-0.14,0.93,-0.24,-2.0,37.0,-3.0,ek
0.0,0.0,141.0,10.0,135.0,33.0,64.0,132.0,-0.14,0.93,-0.24,0.0,32.0,-3.0,ek
0.0,0.0,141.0,11.0,135.0,33.0,64.0,132.0,-0.13,0.93,-0.25,-1.0,31.0,-3.0,ek
0.0,0.0,140.0,11.0,132.0,33.0,62.0,132.0,-0.13,0.93,-0.25,0.0,31.0,-3.0,ek
0.0,0.0,141.0,11.0,132.0,33.0,64.0,132.0,-0.12,0.93,-0.26,0.0,31.0,-4.0,ek
0.0,0.0,141.0,11.0,129.0,31.0,62.0,129.0,-0.12,0.93,-0.26,0.0,31.0,-4.0,ek
0.0,0.0,140.0,9.0,129.0,31.0,59.0,129.0,-0.12,0.93,-0.27,-1.0,31.0,-5.0,ek
0.0,0.0,141.0,10.0,132.0,31.0,76.0,129.0,-0.12,0.93,-0.27,-1.0,30.0,-6.0,ek
0.0,0.0,140.0,9.0,129.0,28.0,71.0,129.0,-0.11,0.92,-0.27,-2.0,27.0,-6.0,ek
0.0,0.0,141.0,10.0,126.0,28.0,76.0,132.0,-0.11,0.93,-0.27,-3.0,30.0,-7.0,ek
0.0,0.0,140.0,10.0,123.0,28.0,71.0,129.0,-0.1,0.93,-0.27,-3.0,29.0,-7.0,ek
0.0,0.0,141.0,10.0,123.0,28.0,76.0,127.0,-0.1,0.93,-0.27,-3.0,29.0,-8.0,ek
0.0,0.0,141.0,10.0,120.0,27.0,78.0,124.0,-0.09,0.93,-0.28,-3.0,25.0,-8.0,ek
0.0,0.0,142.0,10.0,120.0,27.0,78.0,124.0,-0.1,0.93,-0.28,-3.0,16.0,-6.0,ek
0.0,0.0,142.0,10.0,126.0,28.0,81.0,124.0,-0.1,0.93,-0.28,-4.0,7.0,-5.0,ek
0.0,0.0,142.0,11.0,129.0,30.0,78.0,122.0,-0.1,0.93,-0.28,-4.0,-2.0,-4.0,ek
0.0,0.0,143.0,13.0,126.0,30.0,81.0,122.0,-0.11,0.93,-0.28,-5.0,-9.0,-2.0,ek
0.0,0.0,143.0,13.0,126.0,30.0,64.0,122.0,-0.1,0.93,-0.27,-5.0,-21.0,0.0,ek
0.0,0.0,144.0,13.0,129.0,30.0,66.0,119.0,-0.12,0.93,-0.26,-5.0,-28.0,1.0,ek
0.0,0.0,143.0,13.0,129.0,31.0,64.0,114.0,-0.1,0.93,-0.27,-5.0,-40.0,3.0,ek
0.0,0.0,143.0,13.0,129.0,31.0,64.0,114.0,-0.13,0.93,-0.25,-5.0,-47.0,5.0,ek
0.0,0.0,142.0,13.0,129.0,30.0,57.0,111.0,-0.12,0.93,-0.25,-5.0,-53.0,5.0,ek
0.0,0.0,142.0,14.0,126.0,31.0,54.0,117.0,-0.15,0.93,-0.23,-5.0,-58.0,6.0,ek
0.0,0.0,142.0,14.0,126.0,31.0,54.0,114.0,-0.14,0.93,-0.23,-5.0,-57.0,5.0,ek
0.0,0.0,142.0,14.0,126.0,30.0,57.0,117.0,-0.16,0.93,-0.21,-4.0,-63.0,6.0,ek
0.0,0.0,142.0,13.0,126.0,28.0,57.0,122.0,-0.16,0.93,-0.19,-4.0,-59.0,5.0,ek
0.0,0.0,141.0,14.0,123.0,30.0,54.0,119.0,-0.16,0.94,-0.18,-3.0,-65.0,6.0,ek
0.0,0.0,141.0,14.0,123.0,30.0,47.0,119.0,-0.18,0.94,-0.17,-3.0,-57.0,5.0,ek
0.0,0.0,142.0,14.0,120.0,30.0,52.0,122.0,-0.17,0.94,-0.16,-2.0,-62.0,5.0,ek
0.0,0.0,142.0,15.0,123.0,28.0,47.0,124.0,-0.2,0.94,-0.13,-2.0,-55.0,4.0,ek
0.0,0.0,143.0,16.0,123.0,28.0,21.0,124.0,-0.19,0.94,-0.13,-1.0,-58.0,4.0,ek
0.0,0.0,144.0,17.0,120.0,30.0,28.0,124.0,-0.21,0.94,-0.1,-1.0,-55.0,4.0,ek
0.0,0.0,144.0,18.0,123.0,28.0,26.0,122.0,-0.19,0.95,-0.11,-1.0,-57.0,4.0,ek
0.0,0.0,145.0,20.0,123.0,28.0,28.0,122.0,-0.21,0.95,-0.08,-2.0,-58.0,6.0,ek
0.0,0.0,146.0,21.0,123.0,30.0,28.0,122.0,-0.19,0.95,-0.08,-3.0,-53.0,6.0,ek
0.0,0.0,146.0,23.0,123.0,30.0,26.0,119.0,-0.2,0.95,-0.06,-3.0,-58.0,7.0,ek
0.0,0.0,146.0,24.0,123.0,30.0,28.0,122.0,-0.19,0.94,-0.05,-6.0,-54.0,5.0,ek
0.0,0.0,147.0,26.0,123.0,30.0,35.0,124.0,-0.19,0.95,-0.03,-5.0,-60.0,6.0,ek
0.0,0.0,147.0,27.0,126.0,30.0,33.0,122.0,-0.18,0.95,-0.01,-6.0,-53.0,5.0,ek
0.0,0.0,148.0,29.0,126.0,30.0,40.0,124.0,-0.18,0.95,0.0,-6.0,-55.0,6.0,ek
0.0,0.0,147.0,29.0,126.0,28.0,71.0,122.0,-0.17,0.95,0.02,-6.0,-51.0,6.0,ek
0.0,0.0,148.0,29.0,132.0,28.0,71.0,127.0,-0.16,0.95,0.03,-6.0,-54.0,6.0,ek
0.0,0.0,149.0,28.0,132.0,30.0,69.0,137.0,-0.16,0.95,0.05,-6.0,-49.0,5.0,ek
0.0,0.0,148.0,29.0,132.0,30.0,69.0,139.0,-0.14,0.95,0.06,-5.0,-53.0,4.0,ek
0.0,0.0,148.0,28.0,129.0,30.0,66.0,137.0,-0.14,0.96,0.08,-5.0,-50.0,4.0,ek
0.0,0.0,149.0,28.0,126.0,30.0,69.0,139.0,-0.12,0.96,0.08,-6.0,-48.0,3.0,ek
0.0,0.0,149.0,27.0,132.0,28.0,66.0,139.0,-0.11,0.97,0.1,-5.0,-45.0,4.0,ek
0.0,0.0,148.0,27.0,129.0,28.0,66.0,139.0,-0.1,0.97,0.11,-5.0,-42.0,4.0,ek
0.0,0.0,149.0,27.0,129.0,30.0,64.0,139.0,-0.1,0.97,0.12,-5.0,-42.0,4.0,ek
0.0,0.0,149.0,26.0,129.0,28.0,69.0,137.0,-0.08,0.97,0.12,-5.0,-41.0,4.0,ek
0.0,0.0,149.0,26.0,126.0,31.0,66.0,137.0,-0.08,0.96,0.13,-4.0,-41.0,4.0,ek
0.0,0.0,152.0,26.0,126.0,31.0,66.0,134.0,-0.07,0.97,0.13,-4.0,-36.0,4.0,ek
0.0,0.0,153.0,27.0,126.0,30.0,71.0,124.0,-0.06,0.96,0.14,-4.0,-32.0,4.0,ek
0.0,0.0,153.0,27.0,126.0,30.0,71.0,124.0,-0.06,0.97,0.14,-6.0,-26.0,5.0,ek
0.0,0.0,154.0,28.0,126.0,30.0,76.0,127.0,-0.06,0.96,0.15,-5.0,-21.0,5.0,ek
0.0,0.0,155.0,27.0,126.0,30.0,76.0,127.0,-0.05,0.96,0.16,-5.0,-18.0,5.0,ek
0.0,0.0,156.0,29.0,123.0,31.0,81.0,124.0,-0.05,0.95,0.16,-4.0,-13.0,5.0,ek
0.0,0.0,158.0,30.0,123.0,31.0,88.0,124.0,-0.04,0.95,0.17,-4.0,-10.0,4.0,ek
0.0,0.0,158.0,30.0,126.0,30.0,93.0,129.0,-0.03,0.96,0.17,-4.0,-6.0,4.0,ek
0.0,0.0,159.0,32.0,123.0,31.0,93.0,129.0,-0.02,0.96,0.18,-4.0,-3.0,3.0,ek
0.0,0.0,159.0,32.0,126.0,31.0,95.0,129.0,-0.02,0.97,0.18,-5.0,2.0,2.0,ek
0.0,0.0,159.0,33.0,126.0,31.0,100.0,119.0,-0.02,0.96,0.18,-5.0,2.0,2.0,ek
0.0,0.0,161.0,33.0,126.0,31.0,100.0,119.0,-0.01,0.97,0.19,-4.0,3.0,2.0,ek
0.0,0.0,161.0,33.0,126.0,33.0,114.0,119.0,-0.01,0.96,0.19,-3.0,3.0,1.0,ek
0.0,0.0,161.0,33.0,123.0,33.0,112.0,117.0,-0.0,0.97,0.19,-3.0,1.0,0.0,ek
0.0,0.0,159.0,33.0,123.0,33.0,114.0,114.0,-0.0,0.96,0.2,-2.0,2.0,0.0,ek
0.0,0.0,159.0,33.0,126.0,33.0,112.0,114.0,0.0,0.97,0.2,-1.0,1.0,0.0,ek
0.0,0.0,159.0,33.0,123.0,33.0,107.0,111.0,-0.0,0.97,0.2,-2.0,-2.0,0.0,ek
0.0,0.0,160.0,33.0,123.0,33.0,114.0,111.0,0.0,0.97,0.2,-1.0,-5.0,0.0,ek
0.0,0.0,160.0,32.0,120.0,33.0,112.0,111.0,0.01,0.97,0.2,0.0,-9.0,0.0,ek
0.0,0.0,160.0,32.0,120.0,34.0,112.0,109.0,0.01,0.96,0.2,0.0,-15.0,0.0,ek
0.0,0.0,159.0,31.0,117.0,34.0,112.0,122.0,0.01,0.96,0.2,0.0,-19.0,0.0,ek
0.0,0.0,158.0,30.0,114.0,34.0,112.0,127.0,0.01,0.96,0.2,0.0,-23.0,1.0,ek
0.0,0.0,158.0,30.0,111.0,34.0,102.0,124.0,0.03,0.96,0.19,0.0,-26.0,3.0,ek
0.0,0.0,158.0,30.0,111.0,34.0,100.0,122.0,0.03,0.97,0.2,0.0,-28.0,3.0,ek
0.0,0.0,159.0,28.0,114.0,33.0,105.0,127.0,0.04,0.97,0.19,0.0,-30.0,3.0,ek
0.0,0.0,159.0,28.0,114.0,36.0,107.0,129.0,0.05,0.96,0.19,0.0,-28.0,2.0,ek
0.0,0.0,159.0,27.0,114.0,36.0,105.0,127.0,0.06,0.96,0.18,0.0,-25.0,2.0,ek
0.0,0.0,159.0,27.0,114.0,36.0,105.0,127.0,0.05,0.95,0.18,0.0,-13.0,0.0,ek
0.0,0.0,158.0,26.0,111.0,36.0,102.0,129.0,0.05,0.96,0.17,-3.0,-8.0,-1.0,ek
0.0,0.0,158.0,25.0,114.0,34.0,102.0,134.0,0.05,0.96,0.18,-3.0,5.0,-3.0,ek
0.0,0.0,157.0,24.0,108.0,34.0,100.0,134.0,0.05,0.96,0.18,0.0,9.0,-3.0,ek
0.0,0.0,157.0,23.0,114.0,34.0,100.0,127.0,0.05,0.96,0.17,-1.0,20.0,-6.0,ek
0.0,0.0,157.0,22.0,114.0,33.0,100.0,129.0,0.03,0.97,0.17,-3.0,25.0,-7.0,ek
0.0,0.0,156.0,21.0,114.0,33.0,100.0,132.0,0.02,0.96,0.17,-4.0,33.0,-8.0,ek
0.0,0.0,156.0,22.0,117.0,34.0,97.0,134.0,0.0,0.96,0.17,-5.0,35.0,-7.0,ek
0.0,0.0,156.0,21.0,114.0,31.0,93.0,134.0,-0.0,0.96,0.17,-6.0,37.0,-7.0,ek
0.0,0.0,155.0,19.0,117.0,31.0,93.0,134.0,-0.03,0.96,0.18,-6.0,38.0,-7.0,ek
0.0,0.0,153.0,18.0,114.0,28.0,88.0,134.0,-0.02,0.97,0.18,-5.0,30.0,-5.0,ek
0.0,0.0,153.0,17.0,120.0,28.0,85.0,132.0,-0.03,0.96,0.19,-4.0,29.0,-4.0,ek
0.0,0.0,153.0,16.0,120.0,27.0,83.0,127.0,-0.03,0.97,0.18,-3.0,22.0,-3.0,ek
0.0,0.0,152.0,16.0,123.0,27.0,81.0,127.0,-0.04,0.97,0.18,-6.0,24.0,-3.0,ek
0.0,0.0,151.0,15.0,123.0,27.0,81.0,132.0,-0.04,0.97,0.19,-6.0,16.0,0.0,ek
0.0,0.0,152.0,14.0,126.0,27.0,78.0,124.0,-0.05,0.96,0.2,-5.0,14.0,0.0,ek
0.0,0.0,152.0,14.0,129.0,27.0,78.0,124.0,-0.04,0.96,0.2,-4.0,9.0,0.0,ek
0.0,0.0,151.0,13.0,138.0,27.0,71.0,119.0,-0.04,0.96,0.2,-3.0,10.0,0.0,ek
0.0,0.0,150.0,12.0,135.0,27.0,69.0,117.0,-0.04,0.96,0.2,-3.0,7.0,0.0,ek
0.0,0.0,150.0,11.0,138.0,25.0,69.0,119.0,-0.03,0.96,0.2,-3.0,6.0,1.0,ek
0.0,0.0,149.0,12.0,141.0,28.0,66.0,119.0,-0.04,0.96,0.2,-3.0,7.0,0.0,ek
0.0,0.0,149.0,12.0,129.0,28.0,71.0,122.0,-0.04,0.96,0.21,-4.0,6.0,0.0,ek
0.0,0.0,148.0,12.0,126.0,28.0,71.0,122.0,-0.04,0.96,0.21,-5.0,6.0,1.0,ek
0.0,0.0,147.0,11.0,126.0,28.0,71.0,119.0,-0.03,0.96,0.22,-4.0,5.0,1.0,ek
0.0,0.0,147.0,11.0,126.0,28.0,71.0,117.0,-0.04,0.96,0.21,-4.0,6.0,1.0,ek
0.0,0.0,145.0,11.0,123.0,28.0,71.0,119.0,-0.04,0.96,0.22,-3.0,4.0,1.0,ek
0.0,0.0,144.0,11.0,117.0,30.0,71.0,122.0,-0.04,0.95,0.22,-3.0,0.0,3.0,ek
0.0,0.0,144.0,11.0,105.0,30.0,73.0,122.0,-0.03,0.96,0.22,-2.0,-9.0,4.0,ek
0.0,0.0,145.0,11.0,108.0,30.0,71.0,124.0,-0.03,0.96,0.22,-1.0,-11.0,3.0,ek
0.0,0.0,144.0,11.0,102.0,30.0,71.0,122.0,-0.02,0.96,0.22,0.0,-12.0,4.0,ek
0.0,0.0,142.0,11.0,105.0,28.0,66.0,122.0,-0.01,0.96,0.22,0.0,-14.0,5.0,ek
0.0,0.0,143.0,10.0,114.0,28.0,64.0,117.0,0.01,0.96,0.22,0.0,-11.0,4.0,ek
0.0,0.0,142.0,10.0,114.0,31.0,64.0,119.0,0.01,0.96,0.21,-2.0,0.0,2.0,ek
0.0,0.0,143.0,10.0,111.0,31.0,64.0,122.0,0.01,0.96,0.22,-2.0,4.0,2.0,ek
0.0,0.0,142.0,11.0,111.0,31.0,59.0,119.0,0.0,0.95,0.22,-3.0,10.0,3.0,ek
0.0,0.0,142.0,10.0,114.0,30.0,57.0,119.0,0.01,0.95,0.22,-2.0,3.0,3.0,ek
0.0,0.0,142.0,10.0,117.0,30.0,59.0,117.0,0.02,0.96,0.22,-2.0,0.0,2.0,ek
0.0,0.0,142.0,10.0,117.0,28.0,54.0,117.0,0.02,0.96,0.22,-2.0,3.0,1.0,ek
0.0,0.0,141.0,10.0,117.0,28.0,54.0,117.0,0.03,0.96,0.22,-1.0,2.0,2.0,ek
0.0,0.0,140.0,10.0,117.0,28.0,50.0,122.0,0.03,0.96,0.21,-2.0,6.0,0.0,ek
0.0,0.0,142.0,9.0,117.0,28.0,52.0,122.0,0.02,0.96,0.22,-3.0,11.0,0.0,ek
0.0,0.0,142.0,8.0,114.0,28.0,54.0,124.0,0.01,0.95,0.22,-3.0,8.0,0.0,ek
0.0,0.0,142.0,8.0,117.0,28.0,52.0,122.0,0.01,0.96,0.23,0.0,-6.0,1.0,ek
0.0,0.0,142.0,8.0,117.0,28.0,52.0,122.0,0.02,0.96,0.22,1.0,-12.0,0.0,ek
0.0,0.0,142.0,8.0,117.0,28.0,50.0,122.0,0.03,0.96,0.21,2.0,-19.0,0.0,ek
0.0,0.0,142.0,8.0,114.0,28.0,50.0,119.0,0.03,0.96,0.21,1.0,-10.0,-2.0,ek
0.0,0.0,142.0,7.0,111.0,28.0,47.0,119.0,0.03,0.96,0.21,0.0,-4.0,-2.0,ek
0.0,0.0,143.0,8.0,111.0,30.0,52.0,119.0,0.03,0.96,0.2,0.0,-3.0,-3.0,ek
0.0,0.0,144.0,8.0,111.0,30.0,54.0,119.0,0.02,0.96,0.21,0.0,-5.0,-4.0,ek
0.0,0.0,145.0,9.0,114.0,30.0,59.0,117.0,0.02,0.96,0.21,3.0,-15.0,-3.0,ek
0.0,0.0,145.0,11.0,105.0,30.0,64.0,114.0,0.03,0.96,0.2,5.0,-23.0,-3.0,ek
0.0,0.0,146.0,11.0,108.0,30.0,64.0,111.0,0.03,0.96,0.19,5.0,-26.0,-3.0,ek
0.0,0.0,146.0,12.0,111.0,30.0,66.0,114.0,0.03,0.96,0.18,5.0,-24.0,-3.0,ek
0.0,0.0,146.0,12.0,114.0,31.0,64.0,109.0,0.04,0.96,0.18,4.0,-24.0,-2.0,ek
0.0,0.0,147.0,12.0,114.0,31.0,71.0,111.0,0.05,0.97,0.17,4.0,-24.0,-2.0,ek
0.0,0.0,148.0,13.0,114.0,31.0,76.0,114.0,0.04,0.97,0.17,4.0,-26.0,-3.0,ek
0.0,0.0,148.0,14.0,114.0,28.0,78.0,114.0,0.05,0.97,0.17,4.0,-28.0,-2.0,ek
0.0,0.0,147.0,14.0,108.0,28.0,78.0,114.0,0.06,0.97,0.16,5.0,-28.0,-1.0,ek
0.0,0.0,147.0,14.0,108.0,28.0,78.0,111.0,0.07,0.97,0.15,3.0,-29.0,-1.0,ek
0.0,0.0,147.0,14.0,108.0,28.0,81.0,111.0,0.06,0.97,0.15,1.0,-26.0,-2.0,ek
0.0,0.0,147.0,13.0,111.0,30.0,78.0,111.0,0.06,0.97,0.15,0.0,-25.0,-1.0,ek
0.0,0.0,147.0,13.0,108.0,30.0,81.0,111.0,0.07,0.97,0.15,0.0,-24.0,0.0,ek
0.0,0.0,147.0,14.0,105.0,31.0,85.0,111.0,0.07,0.97,0.14,0.0,-22.0,-2.0,ek
0.0,0.0,147.0,14.0,102.0,28.0,71.0,117.0,0.07,0.98,0.14,-1.0,-20.0,-3.0,ek
0.0,0.0,147.0,14.0,102.0,28.0,69.0,114.0,0.08,0.97,0.14,-2.0,-14.0,-2.0,ek
0.0,0.0,147.0,14.0,105.0,28.0,69.0,111.0,0.09,0.97,0.14,-2.0,-11.0,-2.0,ek
0.0,0.0,148.0,14.0,111.0,33.0,69.0,114.0,0.08,0.97,0.13,-3.0,-4.0,-3.0,ek
0.0,0.0,148.0,13.0,111.0,33.0,69.0,114.0,0.07,0.97,0.14,-4.0,5.0,-3.0,ek
0.0,0.0,148.0,13.0,111.0,31.0,69.0,117.0,0.08,0.97,0.14,-4.0,15.0,-2.0,ek
0.0,0.0,148.0,14.0,108.0,31.0,69.0,114.0,0.07,0.97,0.15,-5.0,26.0,-3.0,ek
0.0,0.0,148.0,14.0,111.0,31.0,69.0,114.0,0.07,0.98,0.15,-6.0,36.0,-4.0,ek
0.0,0.0,149.0,14.0,111.0,30.0,66.0,114.0,0.05,0.97,0.15,-9.0,53.0,-5.0,ek
0.0,0.0,148.0,15.0,114.0,30.0,62.0,114.0,0.04,0.97,0.16,-10.0,62.0,-5.0,ek
0.0,0.0,150.0,16.0,117.0,30.0,78.0,117.0,0.01,0.97,0.17,-9.0,67.0,-6.0,ek
0.0,0.0,149.0,15.0,114.0,30.0,78.0,117.0,-0.01,0.97,0.17,-12.0,70.0,-6.0,ek
0.0,0.0,149.0,15.0,114.0,28.0,76.0,117.0,-0.03,0.96,0.19,-13.0,75.0,-6.0,ek
0.0,0.0,147.0,14.0,108.0,28.0,93.0,119.0,-0.04,0.96,0.19,-12.0,73.0,-5.0,ek
0.0,0.0,148.0,15.0,114.0,28.0,93.0,119.0,-0.06,0.95,0.19,-12.0,72.0,-8.0,ek
0.0,0.0,147.0,15.0,114.0,28.0,93.0,119.0,-0.1,0.95,0.2,-14.0,68.0,-9.0,ek
0.0,0.0,146.0,14.0,114.0,27.0,88.0,119.0,-0.1,0.95,0.21,-13.0,59.0,-7.0,ek
0.0,0.0,146.0,13.0,111.0,25.0,88.0,122.0,-0.13,0.94,0.22,-12.0,54.0,-6.0,ek
0.0,0.0,146.0,12.0,108.0,25.0,85.0,122.0,-0.13,0.94,0.22,-8.0,41.0,-5.0,ek
0.0,0.0,147.0,10.0,108.0,25.0,88.0,122.0,-0.14,0.94,0.23,-7.0,33.0,-5.0,ek
0.0,0.0,147.0,10.0,108.0,27.0,88.0,119.0,-0.14,0.94,0.23,-7.0,29.0,-3.0,ek
0.0,0.0,147.0,8.0,111.0,28.0,85.0,119.0,-0.15,0.93,0.23,-5.0,26.0,-4.0,ek
0.0,0.0,148.0,7.0,111.0,28.0,90.0,122.0,-0.15,0.94,0.22,-5.0,22.0,-3.0,ek
0.0,0.0,149.0,7.0,111.0,27.0,71.0,122.0,-0.17,0.94,0.23,-6.0,23.0,-2.0,ek
0.0,0.0,149.0,7.0,108.0,28.0,73.0,122.0,-0.16,0.93,0.23,-7.0,22.0,3.0,ek
0.0,0.0,148.0,7.0,108.0,28.0,73.0,119.0,-0.16,0.93,0.23,-6.0,25.0,3.0,ek
0.0,0.0,149.0,8.0,108.0,28.0,73.0,122.0,-0.16,0.93,0.23,-7.0,28.0,2.0,ek
0.0,0.0,150.0,8.0,114.0,30.0,73.0,122.0,-0.16,0.93,0.23,-8.0,28.0,3.0,ek
0.0,0.0,150.0,8.0,114.0,30.0,81.0,127.0,-0.17,0.93,0.23,-9.0,31.0,4.0,ek
0.0,0.0,149.0,8.0,114.0,28.0,78.0,127.0,-0.16,0.93,0.23,-9.0,31.0,3.0,ek
0.0,0.0,147.0,8.0,117.0,24.0,88.0,129.0,-0.18,0.93,0.23,-10.0,35.0,2.0,ek
0.0,0.0,147.0,9.0,117.0,25.0,88.0,132.0,-0.18,0.93,0.24,-10.0,33.0,2.0,ek
0.0,0.0,145.0,7.0,123.0,25.0,85.0,132.0,-0.19,0.93,0.24,-9.0,37.0,2.0,ek
0.0,0.0,145.0,8.0,126.0,24.0,88.0,132.0,-0.19,0.93,0.24,-6.0,35.0,0.0,ek
0.0,0.0,145.0,7.0,123.0,24.0,88.0,134.0,-0.21,0.93,0.23,-5.0,35.0,-2.0,ek
0.0,0.0,145.0,6.0,123.0,24.0,88.0,137.0,-0.21,0.93,0.23,-6.0,35.0,-2.0,ek
0.0,0.0,146.0,5.0,126.0,24.0,93.0,139.0,-0.2,0.93,0.22,-5.0,33.0,-1.0,ek
0.0,0.0,145.0,4.0,123.0,24.0,93.0,139.0,-0.23,0.93,0.22,-3.0,36.0,-2.0,ek
0.0,0.0,144.0,4.0,123.0,24.0,90.0,137.0,-0.23,0.93,0.21,-4.0,35.0,-2.0,ek
0.0,0.0,144.0,3.0,123.0,24.0,88.0,137.0,-0.25,0.93,0.21,-4.0,38.0,0.0,ek
0.0,0.0,145.0,2.0,120.0,24.0,78.0,137.0,-0.25,0.93,0.2,-3.0,36.0,0.0,ek
0.0,0.0,145.0,2.0,123.0,25.0,78.0,137.0,-0.26,0.93,0.19,-2.0,35.0,1.0,ek
0.0,0.0,166.0,39.0,390.0,144.0,52.0,368.0,-0.23,0.95,-0.01,1.0,5.0,0.0,ek
0.0,0.0,163.0,35.0,357.0,131.0,57.0,340.0,-0.24,0.95,-0.01,1.0,4.0,0.0,ek
0.0,0.0,160.0,32.0,333.0,119.0,54.0,318.0,-0.24,0.95,-0.01,1.0,4.0,1.0,ek
0.0,0.0,158.0,27.0,303.0,104.0,54.0,292.0,-0.23,0.95,-0.02,1.0,4.0,2.0,ek
0.0,0.0,155.0,23.0,270.0,92.0,52.0,267.0,-0.23,0.95,-0.02,1.0,4.0,3.0,ek
0.0,0.0,153.0,20.0,237.0,75.0,52.0,236.0,-0.23,0.94,-0.02,0.0,3.0,3.0,ek
0.0,0.0,150.0,16.0,204.0,61.0,54.0,206.0,-0.23,0.94,-0.02,1.0,3.0,3.0,ek
0.0,0.0,148.0,11.0,174.0,49.0,52.0,183.0,-0.23,0.95,-0.03,0.0,5.0,3.0,ek
0.0,0.0,145.0,8.0,141.0,36.0,59.0,152.0,-0.23,0.95,-0.03,-1.0,3.0,3.0,ek
0.0,0.0,144.0,4.0,114.0,25.0,59.0,132.0,-0.23,0.94,-0.02,0.0,1.0,3.0,ek
0.0,0.0,144.0,4.0,111.0,24.0,57.0,129.0,-0.23,0.94,-0.02,0.0,1.0,3.0,ek
0.0,0.0,143.0,5.0,108.0,25.0,54.0,124.0,-0.22,0.94,-0.01,0.0,0.0,3.0,ek
0.0,0.0,143.0,5.0,105.0,27.0,57.0,124.0,-0.22,0.95,-0.01,-1.0,0.0,2.0,ek
0.0,0.0,143.0,6.0,102.0,28.0,59.0,124.0,-0.21,0.94,-0.0,-1.0,0.0,1.0,ek
0.0,0.0,143.0,6.0,105.0,27.0,57.0,122.0,-0.2,0.95,-0.01,0.0,1.0,0.0,ek
0.0,0.0,143.0,8.0,105.0,28.0,59.0,124.0,-0.21,0.95,-0.01,2.0,-1.0,0.0,ek
0.0,0.0,143.0,7.0,105.0,28.0,54.0,124.0,-0.21,0.95,-0.01,3.0,-8.0,0.0,ek
0.0,0.0,142.0,7.0,105.0,28.0,57.0,124.0,-0.21,0.95,-0.01,3.0,-13.0,0.0,ek
0.0,0.0,142.0,7.0,108.0,28.0,52.0,122.0,-0.21,0.95,-0.01,3.0,-12.0,0.0,ek
0.0,0.0,141.0,7.0,114.0,28.0,52.0,124.0,-0.21,0.96,-0.01,2.0,-13.0,0.0,ek
0.0,0.0,142.0,7.0,114.0,28.0,52.0,122.0,-0.21,0.95,-0.01,2.0,-12.0,1.0,ek
0.0,0.0,142.0,6.0,117.0,28.0,52.0,122.0,-0.21,0.95,-0.01,1.0,-12.0,0.0,ek
0.0,0.0,146.0,6.0,117.0,27.0,54.0,122.0,-0.21,0.95,-0.02,1.0,-12.0,0.0,ek
0.0,0.0,146.0,4.0,117.0,27.0,52.0,122.0,-0.22,0.95,-0.02,0.0,-13.0,0.0,ek
0.0,0.0,145.0,4.0,117.0,27.0,52.0,122.0,-0.21,0.95,-0.02,-1.0,-14.0,0.0,ek
0.0,0.0,145.0,2.0,120.0,27.0,50.0,119.0,-0.2,0.95,-0.02,-3.0,-13.0,0.0,ek
0.0,0.0,145.0,3.0,123.0,25.0,54.0,119.0,-0.2,0.95,-0.01,-4.0,-7.0,0.0,ek
0.0,0.0,146.0,4.0,117.0,27.0,52.0,119.0,-0.2,0.95,-0.0,-5.0,-1.0,1.0,ek
0.0,0.0,145.0,4.0,120.0,25.0,54.0,122.0,-0.19,0.95,-0.01,-4.0,1.0,1.0,ek
0.0,0.0,145.0,4.0,111.0,27.0,54.0,119.0,-0.19,0.95,-0.0,-5.0,9.0,0.0,ek
0.0,0.0,144.0,4.0,111.0,27.0,52.0,119.0,-0.19,0.96,-0.0,-4.0,7.0,0.0,ek
0.0,0.0,144.0,4.0,111.0,27.0,52.0,122.0,-0.19,0.96,-0.0,-5.0,9.0,2.0,ek
0.0,0.0,141.0,4.0,114.0,25.0,52.0,124.0,-0.19,0.96,0.0,-3.0,7.0,3.0,ek
0.0,0.0,141.0,5.0,111.0,25.0,52.0,122.0,-0.18,0.95,-0.0,-3.0,6.0,3.0,ek
0.0,0.0,142.0,4.0,111.0,25.0,52.0,127.0,-0.19,0.96,0.01,-1.0,1.0,3.0,ek
0.0,0.0,142.0,5.0,111.0,25.0,54.0,127.0,-0.18,0.96,0.01,-1.0,1.0,3.0,ek
0.0,0.0,142.0,4.0,111.0,25.0,54.0,124.0,-0.19,0.96,0.01,0.0,-3.0,3.0,ek
0.0,0.0,142.0,4.0,111.0,24.0,52.0,124.0,-0.17,0.96,0.0,0.0,-5.0,2.0,ek
0.0,0.0,142.0,4.0,114.0,25.0,54.0,122.0,-0.18,0.96,0.01,0.0,-9.0,2.0,ek
0.0,0.0,141.0,3.0,120.0,22.0,54.0,122.0,-0.17,0.96,0.01,1.0,-17.0,2.0,ek
0.0,0.0,142.0,3.0,120.0,21.0,59.0,122.0,-0.17,0.96,0.01,0.0,-17.0,1.0,ek
0.0,0.0,142.0,4.0,120.0,22.0,62.0,122.0,-0.16,0.96,0.01,0.0,-21.0,0.0,ek
0.0,0.0,141.0,4.0,123.0,21.0,59.0,122.0,-0.16,0.96,0.01,-4.0,-16.0,-2.0,ek
0.0,0.0,141.0,4.0,120.0,22.0,62.0,122.0,-0.16,0.96,0.02,-6.0,-15.0,-3.0,ek
0.0,0.0,141.0,4.0,123.0,21.0,59.0,119.0,-0.16,0.96,0.03,-10.0,-8.0,-5.0,ek
0.0,0.0,142.0,4.0,123.0,21.0,57.0,119.0,-0.17,0.96,0.04,-11.0,-9.0,-5.0,ek
0.0,0.0,141.0,4.0,126.0,21.0,52.0,117.0,-0.17,0.96,0.05,-14.0,-6.0,-5.0,ek
0.0,0.0,142.0,3.0,123.0,22.0,54.0,117.0,-0.19,0.96,0.07,-16.0,-6.0,-6.0,ek
0.0,0.0,143.0,3.0,123.0,22.0,54.0,117.0,-0.19,0.96,0.08,-20.0,-6.0,-7.0,ek
0.0,0.0,144.0,3.0,111.0,24.0,54.0,117.0,-0.19,0.95,0.11,-22.0,-3.0,-8.0,ek
0.0,0.0,143.0,3.0,111.0,24.0,50.0,117.0,-0.2,0.95,0.12,-24.0,-4.0,-8.0,ek
0.0,0.0,143.0,3.0,111.0,25.0,50.0,117.0,-0.2,0.94,0.15,-26.0,-1.0,-10.0,ek
0.0,0.0,143.0,3.0,111.0,25.0,50.0,117.0,-0.21,0.94,0.18,-26.0,-4.0,-9.0,ek
0.0,0.0,143.0,4.0,120.0,27.0,47.0,114.0,-0.22,0.93,0.2,-27.0,-4.0,-10.0,ek
0.0,0.0,144.0,4.0,123.0,25.0,50.0,114.0,-0.23,0.92,0.22,-26.0,-7.0,-10.0,ek
0.0,0.0,144.0,4.0,117.0,27.0,50.0,114.0,-0.23,0.91,0.24,-28.0,-3.0,-10.0,ek
0.0,0.0,144.0,4.0,114.0,27.0,54.0,114.0,-0.24,0.9,0.27,-28.0,-2.0,-9.0,ek
0.0,0.0,144.0,5.0,111.0,27.0,47.0,114.0,-0.25,0.9,0.29,-27.0,0.0,-9.0,ek
0.0,0.0,143.0,5.0,114.0,28.0,47.0,114.0,-0.25,0.89,0.31,-25.0,0.0,-8.0,ek
0.0,0.0,144.0,6.0,120.0,31.0,50.0,114.0,-0.26,0.88,0.33,-25.0,0.0,-7.0,ek
0.0,0.0,143.0,7.0,114.0,33.0,54.0,114.0,-0.27,0.87,0.35,-25.0,1.0,-6.0,ek
0.0,0.0,144.0,6.0,117.0,30.0,52.0,114.0,-0.27,0.86,0.37,-25.0,1.0,-5.0,ek
0.0,0.0,145.0,7.0,117.0,30.0,52.0,114.0,-0.28,0.85,0.39,-25.0,0.0,-5.0,ek
0.0,0.0,146.0,7.0,111.0,28.0,52.0,114.0,-0.28,0.84,0.41,-25.0,1.0,-4.0,ek
0.0,0.0,146.0,8.0,105.0,30.0,57.0,117.0,-0.28,0.83,0.43,-25.0,3.0,-3.0,ek
0.0,0.0,146.0,8.0,105.0,30.0,62.0,117.0,-0.29,0.82,0.45,-25.0,2.0,-3.0,ek
0.0,0.0,146.0,8.0,108.0,30.0,62.0,119.0,-0.29,0.81,0.47,-25.0,2.0,-3.0,ek
0.0,0.0,146.0,8.0,111.0,28.0,66.0,122.0,-0.29,0.8,0.49,-25.0,1.0,-3.0,ek
0.0,0.0,147.0,8.0,108.0,28.0,62.0,119.0,-0.29,0.79,0.51,-26.0,1.0,-3.0,ek
0.0,0.0,147.0,8.0,108.0,25.0,66.0,119.0,-0.3,0.77,0.53,-26.0,1.0,-4.0,ek
0.0,0.0,147.0,8.0,114.0,25.0,64.0,119.0,-0.29,0.76,0.54,-25.0,1.0,-3.0,ek
0.0,0.0,148.0,8.0,114.0,25.0,62.0,119.0,-0.3,0.75,0.56,-23.0,1.0,-3.0,ek
0.0,0.0,147.0,8.0,111.0,27.0,62.0,117.0,-0.3,0.74,0.58,-22.0,2.0,-3.0,ek
0.0,0.0,147.0,8.0,105.0,27.0,57.0,117.0,-0.3,0.73,0.59,-21.0,1.0,-3.0,ek
0.0,0.0,147.0,7.0,105.0,24.0,52.0,114.0,-0.3,0.71,0.61,-17.0,0.0,-2.0,ek
0.0,0.0,148.0,7.0,111.0,24.0,50.0,114.0,-0.3,0.7,0.62,-13.0,0.0,-1.0,ek
0.0,0.0,148.0,6.0,108.0,25.0,52.0,117.0,-0.29,0.7,0.63,-7.0,1.0,0.0,ek
0.0,0.0,148.0,5.0,105.0,25.0,50.0,114.0,-0.3,0.7,0.63,-3.0,1.0,1.0,ek
0.0,0.0,147.0,5.0,105.0,24.0,52.0,117.0,-0.29,0.7,0.63,4.0,2.0,2.0,ek
0.0,0.0,147.0,4.0,105.0,25.0,50.0,119.0,-0.29,0.7,0.62,7.0,3.0,3.0,ek
0.0,0.0,148.0,5.0,99.0,25.0,52.0,119.0,-0.29,0.71,0.62,13.0,1.0,3.0,ek
0.0,0.0,147.0,5.0,99.0,24.0,54.0,119.0,-0.28,0.72,0.6,17.0,4.0,4.0,ek
0.0,0.0,147.0,5.0,99.0,24.0,57.0,122.0,-0.28,0.74,0.59,22.0,2.0,5.0,ek
0.0,0.0,147.0,5.0,105.0,22.0,59.0,122.0,-0.28,0.75,0.57,26.0,4.0,6.0,ek
0.0,0.0,147.0,5.0,105.0,25.0,62.0,122.0,-0.27,0.77,0.54,29.0,5.0,6.0,ek
0.0,0.0,146.0,5.0,108.0,25.0,59.0,122.0,-0.27,0.79,0.52,30.0,6.0,7.0,ek
0.0,0.0,147.0,5.0,111.0,25.0,59.0,122.0,-0.27,0.8,0.5,31.0,6.0,7.0,ek
0.0,0.0,146.0,5.0,111.0,25.0,57.0,122.0,-0.26,0.82,0.47,32.0,5.0,7.0,ek
0.0,0.0,146.0,5.0,111.0,25.0,57.0,122.0,-0.26,0.84,0.45,32.0,6.0,7.0,ek
0.0,0.0,145.0,5.0,114.0,25.0,59.0,117.0,-0.25,0.86,0.42,32.0,3.0,7.0,ek
0.0,0.0,146.0,4.0,102.0,24.0,57.0,117.0,-0.25,0.87,0.39,30.0,6.0,7.0,ek
0.0,0.0,145.0,4.0,96.0,25.0,52.0,119.0,-0.24,0.88,0.37,30.0,2.0,7.0,ek
0.0,0.0,145.0,4.0,93.0,25.0,47.0,117.0,-0.23,0.89,0.34,27.0,3.0,7.0,ek
0.0,0.0,146.0,4.0,90.0,27.0,47.0,114.0,-0.23,0.9,0.32,26.0,1.0,6.0,ek
0.0,0.0,145.0,4.0,90.0,27.0,50.0,114.0,-0.22,0.91,0.3,25.0,2.0,6.0,ek
0.0,0.0,145.0,4.0,87.0,27.0,47.0,111.0,-0.22,0.92,0.27,24.0,0.0,5.0,ek
0.0,0.0,144.0,4.0,87.0,25.0,47.0,114.0,-0.21,0.93,0.25,23.0,0.0,5.0,ek
0.0,0.0,144.0,4.0,81.0,25.0,47.0,114.0,-0.21,0.93,0.23,22.0,-1.0,4.0,ek
0.0,0.0,145.0,4.0,81.0,25.0,47.0,114.0,-0.2,0.94,0.2,21.0,-2.0,4.0,ek
0.0,0.0,145.0,4.0,81.0,25.0,47.0,114.0,-0.19,0.94,0.18,19.0,0.0,4.0,ek
0.0,0.0,144.0,5.0,90.0,25.0,47.0,119.0,-0.19,0.95,0.16,20.0,0.0,3.0,ek
0.0,0.0,144.0,5.0,93.0,25.0,45.0,114.0,-0.19,0.95,0.14,18.0,0.0,3.0,ek
0.0,0.0,144.0,5.0,102.0,24.0,54.0,114.0,-0.19,0.95,0.12,18.0,0.0,3.0,ek
0.0,0.0,143.0,5.0,105.0,24.0,54.0,114.0,-0.18,0.96,0.1,17.0,0.0,2.0,ek
0.0,0.0,144.0,5.0,105.0,24.0,57.0,117.0,-0.18,0.95,0.09,16.0,0.0,2.0,ek
0.0,0.0,144.0,5.0,102.0,24.0,57.0,114.0,-0.17,0.96,0.07,15.0,2.0,2.0,ek
0.0,0.0,144.0,5.0,102.0,24.0,52.0,111.0,-0.17,0.96,0.06,14.0,2.0,2.0,ek
0.0,0.0,144.0,5.0,105.0,24.0,54.0,111.0,-0.17,0.96,0.05,13.0,2.0,1.0,ek
0.0,0.0,143.0,5.0,102.0,24.0,52.0,111.0,-0.17,0.96,0.04,12.0,2.0,0.0,ek
0.0,0.0,144.0,6.0,105.0,22.0,57.0,111.0,-0.17,0.97,0.03,12.0,1.0,0.0,ek
0.0,0.0,143.0,5.0,105.0,22.0,57.0,109.0,-0.17,0.96,0.01,10.0,1.0,0.0,ek
0.0,0.0,142.0,4.0,105.0,22.0,59.0,111.0,-0.17,0.96,0.0,11.0,1.0,0.0,ek
0.0,0.0,142.0,5.0,96.0,18.0,57.0,109.0,-0.17,0.96,-0.01,10.0,1.0,1.0,ek
0.0,0.0,142.0,5.0,99.0,18.0,54.0,109.0,-0.17,0.96,-0.02,10.0,1.0,1.0,ek
0.0,0.0,142.0,5.0,96.0,18.0,52.0,109.0,-0.17,0.96,-0.04,10.0,1.0,1.0,ek
0.0,0.0,142.0,6.0,99.0,16.0,52.0,101.0,-0.17,0.96,-0.04,10.0,0.0,1.0,ek
0.0,0.0,142.0,6.0,99.0,15.0,59.0,104.0,-0.17,0.96,-0.05,10.0,0.0,0.0,ek
0.0,0.0,142.0,7.0,102.0,15.0,59.0,104.0,-0.17,0.96,-0.07,9.0,0.0,0.0,ek
0.0,0.0,141.0,6.0,102.0,13.0,59.0,104.0,-0.17,0.96,-0.08,8.0,1.0,1.0,ek
0.0,0.0,141.0,7.0,96.0,15.0,57.0,101.0,-0.17,0.95,-0.08,6.0,1.0,1.0,ek
0.0,0.0,142.0,6.0,99.0,15.0,57.0,101.0,-0.17,0.95,-0.09,4.0,1.0,1.0,ek
0.0,0.0,143.0,8.0,99.0,15.0,57.0,104.0,-0.17,0.95,-0.09,2.0,0.0,1.0,ek
0.0,0.0,143.0,7.0,99.0,19.0,57.0,101.0,-0.17,0.96,-0.1,-2.0,0.0,1.0,ek
0.0,0.0,143.0,6.0,93.0,19.0,57.0,99.0,-0.16,0.96,-0.09,-4.0,0.0,1.0,ek
0.0,0.0,142.0,7.0,93.0,19.0,54.0,99.0,-0.17,0.96,-0.09,-8.0,0.0,0.0,ek
0.0,0.0,142.0,9.0,84.0,19.0,52.0,106.0,-0.17,0.96,-0.08,-12.0,-1.0,0.0,ek
0.0,0.0,142.0,8.0,81.0,21.0,52.0,106.0,-0.17,0.96,-0.07,-17.0,0.0,0.0,ek
0.0,0.0,141.0,8.0,81.0,19.0,50.0,106.0,-0.17,0.96,-0.05,-21.0,0.0,0.0,ek
0.0,0.0,142.0,8.0,78.0,19.0,50.0,104.0,-0.16,0.96,-0.03,-23.0,0.0,-1.0,ek
0.0,0.0,141.0,8.0,84.0,16.0,64.0,101.0,-0.16,0.96,-0.01,-27.0,0.0,-2.0,ek
0.0,0.0,141.0,10.0,87.0,13.0,64.0,99.0,-0.17,0.96,0.02,-27.0,0.0,-3.0,ek
0.0,0.0,142.0,8.0,84.0,15.0,64.0,96.0,-0.17,0.96,0.04,-26.0,1.0,-3.0,ek
0.0,0.0,142.0,10.0,84.0,15.0,64.0,101.0,-0.16,0.96,0.07,-24.0,1.0,-3.0,ek
0.0,0.0,142.0,10.0,87.0,15.0,62.0,99.0,-0.17,0.95,0.09,-24.0,2.0,-4.0,ek
0.0,0.0,142.0,10.0,87.0,15.0,64.0,96.0,-0.17,0.95,0.11,-24.0,2.0,-3.0,ek
0.0,0.0,142.0,7.0,96.0,15.0,64.0,96.0,-0.17,0.95,0.13,-21.0,2.0,-3.0,ek
0.0,0.0,142.0,7.0,96.0,18.0,62.0,96.0,-0.18,0.95,0.14,-19.0,0.0,-4.0,ek
0.0,0.0,143.0,8.0,99.0,18.0,64.0,99.0,-0.18,0.94,0.16,-15.0,1.0,-5.0,ek
0.0,0.0,142.0,9.0,102.0,18.0,62.0,99.0,-0.19,0.94,0.18,-13.0,1.0,-6.0,ek
0.0,0.0,140.0,8.0,99.0,18.0,45.0,99.0,-0.19,0.94,0.19,-10.0,1.0,-7.0,ek
0.0,0.0,141.0,7.0,96.0,19.0,45.0,104.0,-0.19,0.94,0.19,-10.0,1.0,-8.0,ek
0.0,0.0,139.0,6.0,96.0,19.0,45.0,101.0,-0.2,0.94,0.2,-10.0,2.0,-11.0,ek
0.0,0.0,139.0,4.0,93.0,18.0,40.0,96.0,-0.22,0.93,0.21,-12.0,3.0,-14.0,ek
0.0,0.0,140.0,4.0,93.0,19.0,45.0,99.0,-0.23,0.92,0.22,-11.0,3.0,-16.0,ek
0.0,0.0,139.0,4.0,96.0,19.0,42.0,101.0,-0.25,0.92,0.23,-8.0,2.0,-18.0,ek
0.0,0.0,140.0,3.0,96.0,19.0,38.0,101.0,-0.26,0.91,0.23,-9.0,3.0,-19.0,ek
0.0,0.0,140.0,2.0,96.0,16.0,38.0,101.0,-0.27,0.9,0.24,-7.0,3.0,-19.0,ek
0.0,0.0,140.0,1.0,93.0,16.0,35.0,101.0,-0.29,0.9,0.24,-6.0,2.0,-19.0,ek
0.0,0.0,141.0,1.0,93.0,18.0,33.0,99.0,-0.3,0.89,0.25,-5.0,2.0,-19.0,ek
0.0,0.0,143.0,1.0,93.0,19.0,35.0,101.0,-0.32,0.88,0.25,-4.0,2.0,-19.0,ek
0.0,0.0,143.0,1.0,93.0,19.0,35.0,101.0,-0.34,0.88,0.26,-4.0,0.0,-19.0,ek
0.0,0.0,143.0,1.0,105.0,18.0,35.0,104.0,-0.36,0.87,0.26,-2.0,-1.0,-18.0,ek
0.0,0.0,143.0,0.0,108.0,18.0,35.0,106.0,-0.37,0.87,0.26,-1.0,-3.0,-17.0,ek
0.0,0.0,143.0,0.0,111.0,18.0,33.0,104.0,-0.38,0.86,0.26,0.0,-3.0,-15.0,ek
0.0,0.0,143.0,0.0,108.0,18.0,35.0,104.0,-0.39,0.86,0.26,0.0,-4.0,-15.0,ek
0.0,0.0,142.0,0.0,108.0,18.0,35.0,104.0,-0.4,0.85,0.27,0.0,-5.0,-15.0,ek
0.0,0.0,142.0,0.0,102.0,19.0,38.0,104.0,-0.41,0.85,0.27,0.0,-4.0,-16.0,ek
0.0,0.0,141.0,0.0,108.0,18.0,40.0,104.0,-0.42,0.84,0.27,0.0,-4.0,-16.0,ek
0.0,0.0,141.0,0.0,111.0,18.0,42.0,104.0,-0.43,0.84,0.27,-1.0,-4.0,-15.0,ek
0.0,0.0,140.0,0.0,108.0,18.0,38.0,101.0,-0.44,0.83,0.27,0.0,-4.0,-15.0,ek
0.0,0.0,139.0,0.0,108.0,18.0,40.0,109.0,-0.45,0.82,0.27,0.0,-2.0,-15.0,ek
0.0,0.0,138.0,0.0,99.0,18.0,38.0,109.0,-0.46,0.82,0.28,0.0,-3.0,-15.0,ek
0.0,0.0,138.0,1.0,93.0,18.0,38.0,109.0,-0.47,0.81,0.28,0.0,-2.0,-14.0,ek
0.0,0.0,138.0,1.0,93.0,16.0,35.0,109.0,-0.48,0.8,0.28,0.0,-2.0,-14.0,ek
0.0,0.0,139.0,0.0,93.0,15.0,35.0,109.0,-0.49,0.8,0.28,0.0,-2.0,-13.0,ek
0.0,0.0,139.0,0.0,96.0,13.0,40.0,111.0,-0.5,0.79,0.28,0.0,-2.0,-12.0,ek
0.0,0.0,140.0,0.0,99.0,12.0,42.0,114.0,-0.51,0.79,0.28,-2.0,-2.0,-12.0,ek
0.0,0.0,140.0,0.0,96.0,13.0,42.0,111.0,-0.51,0.78,0.28,-2.0,-2.0,-12.0,ek
0.0,0.0,140.0,0.0,93.0,15.0,64.0,114.0,-0.52,0.77,0.28,-2.0,-2.0,-11.0,ek
0.0,0.0,140.0,0.0,90.0,15.0,69.0,111.0,-0.53,0.77,0.29,-3.0,0.0,-10.0,ek
0.0,0.0,142.0,1.0,93.0,15.0,71.0,106.0,-0.53,0.77,0.29,-3.0,0.0,-9.0,ek
0.0,0.0,143.0,1.0,96.0,15.0,73.0,104.0,-0.54,0.76,0.29,-5.0,-1.0,-9.0,ek
0.0,0.0,143.0,1.0,96.0,16.0,76.0,104.0,-0.55,0.75,0.3,-4.0,0.0,-9.0,ek
0.0,0.0,142.0,1.0,99.0,16.0,81.0,106.0,-0.55,0.75,0.3,-4.0,0.0,-9.0,ek
0.0,0.0,143.0,1.0,102.0,18.0,81.0,106.0,-0.56,0.74,0.3,-3.0,1.0,-9.0,ek
0.0,0.0,143.0,1.0,99.0,19.0,81.0,106.0,-0.56,0.74,0.3,-3.0,0.0,-9.0,ek
0.0,0.0,142.0,1.0,96.0,21.0,76.0,104.0,-0.57,0.73,0.3,-1.0,2.0,-7.0,ek
0.0,0.0,143.0,0.0,99.0,21.0,81.0,109.0,-0.58,0.73,0.3,-1.0,2.0,-6.0,ek
0.0,0.0,143.0,0.0,96.0,21.0,33.0,109.0,-0.58,0.73,0.3,0.0,3.0,-1.0,ek
0.0,0.0,143.0,0.0,99.0,21.0,28.0,111.0,-0.58,0.73,0.3,2.0,0.0,3.0,ek
0.0,0.0,142.0,0.0,96.0,22.0,26.0,111.0,-0.57,0.74,0.3,3.0,3.0,8.0,ek
0.0,0.0,142.0,0.0,99.0,21.0,33.0,114.0,-0.56,0.74,0.29,6.0,1.0,12.0,ek
0.0,0.0,142.0,0.0,96.0,21.0,11.0,114.0,-0.55,0.75,0.29,8.0,2.0,14.0,ek
0.0,0.0,142.0,0.0,90.0,21.0,9.0,114.0,-0.54,0.76,0.28,10.0,2.0,17.0,ek
0.0,0.0,142.0,0.0,90.0,21.0,23.0,114.0,-0.53,0.77,0.27,11.0,5.0,21.0,ek
0.0,0.0,142.0,0.0,90.0,21.0,23.0,114.0,-0.51,0.79,0.26,13.0,4.0,27.0,ek
0.0,0.0,141.0,0.0,90.0,21.0,23.0,111.0,-0.49,0.81,0.25,13.0,6.0,29.0,ek
0.0,0.0,141.0,0.0,93.0,21.0,23.0,111.0,-0.46,0.83,0.24,14.0,7.0,33.0,ek
0.0,0.0,141.0,0.0,99.0,21.0,50.0,109.0,-0.44,0.84,0.23,14.0,6.0,30.0,ek
0.0,0.0,142.0,0.0,99.0,19.0,50.0,109.0,-0.41,0.86,0.21,13.0,7.0,29.0,ek
0.0,0.0,142.0,0.0,99.0,18.0,50.0,96.0,-0.39,0.87,0.2,13.0,4.0,25.0,ek
0.0,0.0,142.0,0.0,102.0,18.0,50.0,96.0,-0.37,0.88,0.18,10.0,7.0,24.0,ek
0.0,0.0,142.0,1.0,99.0,18.0,71.0,96.0,-0.35,0.89,0.17,10.0,5.0,24.0,ek
0.0,0.0,142.0,1.0,108.0,16.0,69.0,94.0,-0.32,0.9,0.16,7.0,7.0,23.0,ek
0.0,0.0,142.0,1.0,108.0,18.0,59.0,94.0,-0.3,0.91,0.15,6.0,4.0,22.0,ek
0.0,0.0,142.0,1.0,111.0,18.0,62.0,91.0,-0.28,0.92,0.14,5.0,5.0,19.0,ek
0.0,0.0,140.0,1.0,108.0,18.0,66.0,94.0,-0.26,0.92,0.13,5.0,4.0,18.0,ek
0.0,0.0,140.0,2.0,102.0,18.0,64.0,91.0,-0.25,0.93,0.13,4.0,3.0,16.0,ek
0.0,0.0,140.0,5.0,96.0,19.0,64.0,91.0,-0.23,0.94,0.12,3.0,4.0,16.0,ek
0.0,0.0,139.0,5.0,96.0,19.0,66.0,91.0,-0.22,0.94,0.12,2.0,4.0,15.0,ek
0.0,0.0,139.0,5.0,84.0,19.0,66.0,104.0,-0.21,0.94,0.12,2.0,4.0,15.0,ek
0.0,0.0,139.0,5.0,81.0,21.0,64.0,104.0,-0.2,0.95,0.12,2.0,2.0,14.0,ek
0.0,0.0,140.0,5.0,84.0,21.0,66.0,101.0,-0.19,0.95,0.11,1.0,3.0,13.0,ek
0.0,0.0,139.0,5.0,84.0,21.0,64.0,104.0,-0.18,0.95,0.11,2.0,3.0,13.0,ek
0.0,0.0,139.0,5.0,84.0,21.0,59.0,104.0,-0.17,0.96,0.11,0.0,3.0,11.0,ek
0.0,0.0,139.0,5.0,87.0,21.0,54.0,104.0,-0.16,0.96,0.11,0.0,3.0,11.0,ek
0.0,0.0,141.0,5.0,87.0,21.0,52.0,106.0,-0.15,0.96,0.11,0.0,2.0,10.0,ek
0.0,0.0,141.0,5.0,96.0,19.0,52.0,106.0,-0.14,0.96,0.11,0.0,2.0,10.0,ek
0.0,0.0,141.0,3.0,93.0,19.0,54.0,109.0,-0.13,0.97,0.11,0.0,0.0,10.0,ek
0.0,0.0,141.0,2.0,96.0,18.0,52.0,109.0,-0.12,0.97,0.1,-2.0,1.0,9.0,ek
0.0,0.0,142.0,2.0,105.0,18.0,47.0,106.0,-0.1,0.97,0.1,-1.0,0.0,9.0,ek
0.0,0.0,142.0,2.0,105.0,18.0,45.0,109.0,-0.1,0.97,0.1,-2.0,1.0,8.0,ek
0.0,0.0,141.0,2.0,105.0,18.0,45.0,111.0,-0.09,0.97,0.1,0.0,1.0,8.0,ek
0.0,0.0,142.0,2.0,99.0,18.0,45.0,111.0,-0.08,0.97,0.1,-1.0,1.0,7.0,ek
0.0,0.0,140.0,2.0,96.0,16.0,45.0,111.0,-0.07,0.97,0.1,0.0,0.0,8.0,ek
0.0,0.0,140.0,2.0,93.0,16.0,47.0,111.0,-0.06,0.98,0.1,-1.0,0.0,7.0,ek
0.0,0.0,140.0,2.0,93.0,16.0,45.0,111.0,-0.06,0.98,0.1,0.0,0.0,8.0,ek
0.0,0.0,140.0,2.0,90.0,18.0,42.0,111.0,-0.05,0.98,0.1,0.0,0.0,7.0,ek
0.0,0.0,140.0,2.0,93.0,18.0,47.0,111.0,-0.04,0.98,0.1,0.0,1.0,6.0,ek
0.0,0.0,139.0,3.0,96.0,19.0,47.0,111.0,-0.03,0.98,0.1,0.0,1.0,6.0,ek
0.0,0.0,138.0,3.0,96.0,19.0,45.0,111.0,-0.03,0.98,0.1,0.0,1.0,5.0,ek
0.0,0.0,138.0,4.0,99.0,18.0,45.0,109.0,-0.03,0.98,0.1,0.0,1.0,4.0,ek
0.0,0.0,139.0,5.0,99.0,18.0,50.0,111.0,-0.02,0.98,0.1,0.0,1.0,4.0,ek
0.0,0.0,138.0,5.0,99.0,18.0,50.0,109.0,-0.02,0.98,0.1,0.0,0.0,4.0,ek
0.0,0.0,138.0,5.0,102.0,18.0,50.0,106.0,-0.01,0.97,0.09,0.0,1.0,3.0,ek
0.0,0.0,138.0,5.0,102.0,18.0,42.0,101.0,-0.01,0.97,0.09,0.0,1.0,3.0,ek
0.0,0.0,138.0,5.0,102.0,18.0,42.0,101.0,-0.01,0.97,0.09,-1.0,1.0,1.0,ek
0.0,0.0,138.0,6.0,102.0,18.0,45.0,99.0,-0.01,0.97,0.09,-2.0,2.0,0.0,ek
0.0,0.0,136.0,5.0,102.0,16.0,42.0,99.0,-0.01,0.97,0.09,-3.0,1.0,0.0,ek
0.0,0.0,136.0,5.0,96.0,19.0,45.0,99.0,-0.01,0.97,0.09,-3.0,1.0,-3.0,ek
0.0,0.0,137.0,5.0,96.0,19.0,50.0,96.0,-0.01,0.97,0.09,-4.0,2.0,-4.0,ek
0.0,0.0,136.0,4.0,93.0,19.0,47.0,96.0,-0.01,0.97,0.1,-5.0,2.0,-5.0,ek
0.0,0.0,136.0,4.0,90.0,21.0,45.0,94.0,-0.02,0.97,0.1,-6.0,4.0,-8.0,ek
0.0,0.0,136.0,2.0,84.0,22.0,45.0,99.0,-0.03,0.98,0.11,-7.0,4.0,-10.0,ek
0.0,0.0,137.0,2.0,87.0,22.0,45.0,99.0,-0.04,0.97,0.12,-8.0,5.0,-11.0,ek
0.0,0.0,137.0,1.0,87.0,21.0,47.0,104.0,-0.05,0.97,0.12,-8.0,4.0,-12.0,ek
0.0,0.0,140.0,2.0,87.0,21.0,50.0,104.0,-0.06,0.97,0.13,-7.0,4.0,-13.0,ek
0.0,0.0,139.0,1.0,90.0,19.0,47.0,104.0,-0.07,0.97,0.13,-7.0,3.0,-14.0,ek
0.0,0.0,143.0,2.0,90.0,21.0,45.0,101.0,-0.09,0.97,0.14,-7.0,6.0,-15.0,ek
0.0,0.0,143.0,2.0,93.0,19.0,16.0,104.0,-0.1,0.96,0.14,-6.0,6.0,-15.0,ek
0.0,0.0,143.0,2.0,93.0,19.0,19.0,104.0,-0.12,0.96,0.15,-7.0,6.0,-16.0,ek
0.0,0.0,142.0,2.0,96.0,19.0,19.0,104.0,-0.13,0.96,0.15,-5.0,6.0,-16.0,ek
0.0,0.0,142.0,2.0,102.0,16.0,16.0,104.0,-0.15,0.95,0.15,-3.0,4.0,-14.0,ek
0.0,0.0,142.0,4.0,102.0,13.0,9.0,101.0,-0.16,0.95,0.15,-2.0,5.0,-12.0,ek
0.0,0.0,141.0,4.0,102.0,15.0,7.0,101.0,-0.17,0.95,0.15,0.0,4.0,-10.0,ek
0.0,0.0,142.0,4.0,105.0,15.0,9.0,104.0,-0.18,0.95,0.15,0.0,8.0,-10.0,ek
0.0,0.0,138.0,4.0,105.0,15.0,7.0,104.0,-0.19,0.95,0.15,2.0,9.0,-10.0,ek
0.0,0.0,138.0,4.0,102.0,15.0,4.0,99.0,-0.2,0.94,0.14,4.0,12.0,-9.0,ek
0.0,0.0,138.0,3.0,99.0,15.0,4.0,99.0,-0.2,0.94,0.13,7.0,8.0,-8.0,ek
0.0,0.0,137.0,2.0,96.0,15.0,31.0,101.0,-0.21,0.94,0.12,10.0,11.0,-7.0,ek
0.0,0.0,138.0,2.0,99.0,13.0,31.0,99.0,-0.22,0.94,0.11,14.0,9.0,-5.0,ek
0.0,0.0,139.0,2.0,96.0,15.0,31.0,99.0,-0.22,0.94,0.09,15.0,9.0,-4.0,ek
0.0,0.0,140.0,2.0,93.0,16.0,31.0,101.0,-0.22,0.94,0.07,16.0,9.0,-4.0,ek
0.0,0.0,140.0,1.0,99.0,16.0,40.0,96.0,-0.22,0.94,0.06,17.0,9.0,-5.0,ek
0.0,0.0,140.0,1.0,93.0,16.0,42.0,96.0,-0.23,0.94,0.04,17.0,8.0,-6.0,ek
0.0,0.0,144.0,1.0,87.0,16.0,42.0,96.0,-0.23,0.94,0.03,17.0,6.0,-6.0,ek
0.0,0.0,144.0,1.0,87.0,16.0,45.0,96.0,-0.24,0.94,0.01,17.0,5.0,-5.0,ek
0.0,0.0,145.0,2.0,90.0,16.0,50.0,101.0,-0.24,0.94,-0.01,17.0,3.0,-5.0,ek
0.0,0.0,144.0,2.0,90.0,16.0,45.0,94.0,-0.25,0.94,-0.03,15.0,4.0,-5.0,ek
0.0,0.0,145.0,2.0,93.0,13.0,50.0,99.0,-0.24,0.94,-0.05,12.0,2.0,-5.0,ek
0.0,0.0,144.0,2.0,90.0,13.0,50.0,101.0,-0.25,0.94,-0.06,10.0,2.0,-5.0,ek
0.0,0.0,146.0,2.0,90.0,12.0,52.0,101.0,-0.26,0.94,-0.06,8.0,2.0,-5.0,ek
0.0,0.0,145.0,2.0,93.0,13.0,54.0,104.0,-0.26,0.94,-0.07,6.0,1.0,-4.0,ek
0.0,0.0,145.0,2.0,93.0,13.0,54.0,106.0,-0.27,0.94,-0.08,2.0,1.0,-3.0,ek
0.0,0.0,145.0,2.0,90.0,13.0,54.0,109.0,-0.26,0.94,-0.08,-1.0,1.0,0.0,ek
0.0,0.0,142.0,1.0,93.0,15.0,54.0,106.0,-0.26,0.95,-0.08,-6.0,1.0,1.0,ek
0.0,0.0,141.0,1.0,96.0,13.0,54.0,109.0,-0.26,0.94,-0.07,-11.0,2.0,3.0,ek
0.0,0.0,141.0,0.0,93.0,13.0,54.0,109.0,-0.26,0.95,-0.06,-15.0,3.0,4.0,ek
0.0,0.0,138.0,1.0,93.0,13.0,59.0,111.0,-0.26,0.95,-0.04,-20.0,3.0,6.0,ek
0.0,0.0,138.0,1.0,99.0,15.0,54.0,109.0,-0.25,0.95,-0.02,-22.0,5.0,8.0,ek
0.0,0.0,139.0,2.0,96.0,15.0,54.0,109.0,-0.25,0.95,-0.0,-26.0,7.0,8.0,ek
0.0,0.0,138.0,2.0,96.0,15.0,52.0,109.0,-0.23,0.95,0.02,-26.0,8.0,9.0,ek
0.0,0.0,137.0,2.0,99.0,15.0,47.0,104.0,-0.22,0.95,0.04,-29.0,10.0,10.0,ek
0.0,0.0,138.0,4.0,99.0,15.0,50.0,106.0,-0.21,0.95,0.07,-29.0,9.0,10.0,ek
0.0,0.0,138.0,4.0,102.0,15.0,50.0,104.0,-0.2,0.95,0.09,-27.0,10.0,9.0,ek
0.0,0.0,138.0,5.0,102.0,13.0,42.0,104.0,-0.2,0.95,0.11,-25.0,9.0,8.0,ek
0.0,0.0,139.0,5.0,102.0,12.0,45.0,104.0,-0.19,0.95,0.13,-23.0,9.0,6.0,ek
0.0,0.0,138.0,7.0,99.0,13.0,50.0,104.0,-0.18,0.95,0.15,-22.0,8.0,5.0,ek
0.0,0.0,142.0,6.0,99.0,13.0,45.0,101.0,-0.18,0.94,0.17,-21.0,8.0,5.0,ek
0.0,0.0,142.0,7.0,99.0,13.0,47.0,104.0,-0.18,0.94,0.18,-23.0,7.0,3.0,ek
0.0,0.0,142.0,7.0,96.0,13.0,45.0,99.0,-0.17,0.93,0.2,-23.0,5.0,3.0,ek
0.0,0.0,142.0,8.0,99.0,13.0,47.0,101.0,-0.17,0.93,0.22,-25.0,4.0,1.0,ek
0.0,0.0,142.0,9.0,93.0,15.0,52.0,101.0,-0.18,0.92,0.25,-25.0,3.0,1.0,ek
0.0,0.0,143.0,8.0,93.0,15.0,54.0,101.0,-0.17,0.92,0.27,-26.0,4.0,0.0,ek
0.0,0.0,142.0,8.0,93.0,13.0,57.0,101.0,-0.18,0.91,0.29,-27.0,5.0,0.0,ek
0.0,0.0,146.0,8.0,96.0,16.0,57.0,99.0,-0.17,0.91,0.31,-29.0,5.0,-1.0,ek
0.0,0.0,146.0,9.0,93.0,19.0,57.0,99.0,-0.18,0.9,0.34,-28.0,5.0,-1.0,ek
0.0,0.0,146.0,8.0,99.0,19.0,52.0,99.0,-0.17,0.89,0.36,-28.0,5.0,-2.0,ek
0.0,0.0,146.0,8.0,99.0,18.0,59.0,101.0,-0.18,0.88,0.39,-24.0,5.0,-2.0,ek
0.0,0.0,146.0,8.0,96.0,19.0,59.0,101.0,-0.18,0.87,0.4,-22.0,6.0,-2.0,ek
0.0,0.0,147.0,8.0,102.0,19.0,62.0,101.0,-0.18,0.87,0.42,-16.0,5.0,-3.0,ek
0.0,0.0,146.0,8.0,105.0,24.0,64.0,101.0,-0.18,0.86,0.43,-13.0,6.0,-2.0,ek
0.0,0.0,146.0,7.0,108.0,24.0,62.0,101.0,-0.18,0.86,0.44,-9.0,5.0,-2.0,ek
0.0,0.0,146.0,7.0,111.0,22.0,57.0,101.0,-0.18,0.85,0.45,-4.0,4.0,-2.0,ek
0.0,0.0,146.0,7.0,111.0,24.0,52.0,101.0,-0.19,0.86,0.45,1.0,3.0,-2.0,ek
0.0,0.0,142.0,8.0,102.0,22.0,45.0,104.0,-0.19,0.86,0.44,7.0,3.0,0.0,ek
0.0,0.0,142.0,8.0,102.0,24.0,42.0,104.0,-0.19,0.86,0.43,9.0,3.0,1.0,ek
0.0,0.0,142.0,8.0,105.0,24.0,42.0,104.0,-0.19,0.87,0.42,11.0,3.0,2.0,ek
0.0,0.0,143.0,9.0,105.0,24.0,40.0,99.0,-0.19,0.87,0.41,15.0,3.0,2.0,ek
0.0,0.0,146.0,8.0,105.0,22.0,38.0,101.0,-0.18,0.88,0.39,19.0,2.0,3.0,ek
0.0,0.0,146.0,8.0,102.0,24.0,38.0,99.0,-0.18,0.88,0.38,21.0,2.0,2.0,ek
0.0,0.0,146.0,8.0,96.0,21.0,35.0,99.0,-0.18,0.89,0.36,23.0,2.0,2.0,ek
0.0,0.0,146.0,8.0,93.0,19.0,35.0,99.0,-0.18,0.9,0.33,24.0,1.0,1.0,ek
0.0,0.0,147.0,7.0,90.0,21.0,33.0,99.0,-0.17,0.91,0.31,23.0,1.0,1.0,ek
0.0,0.0,148.0,7.0,90.0,19.0,38.0,99.0,-0.17,0.92,0.29,22.0,1.0,0.0,ek
0.0,0.0,148.0,5.0,93.0,18.0,47.0,101.0,-0.17,0.92,0.27,20.0,0.0,0.0,ek
0.0,0.0,148.0,4.0,93.0,16.0,45.0,101.0,-0.17,0.93,0.25,18.0,0.0,-2.0,ek
0.0,0.0,148.0,4.0,93.0,16.0,45.0,101.0,-0.17,0.93,0.23,17.0,0.0,-2.0,ek
0.0,0.0,147.0,4.0,93.0,18.0,45.0,104.0,-0.17,0.94,0.22,15.0,0.0,-2.0,ek
0.0,0.0,143.0,3.0,96.0,16.0,40.0,101.0,-0.17,0.94,0.21,13.0,-1.0,-2.0,ek
0.0,0.0,143.0,4.0,99.0,15.0,38.0,101.0,-0.17,0.95,0.19,10.0,0.0,0.0,ek
0.0,0.0,143.0,2.0,99.0,15.0,38.0,104.0,-0.17,0.95,0.18,9.0,0.0,1.0,ek
0.0,0.0,142.0,2.0,105.0,15.0,33.0,101.0,-0.17,0.95,0.17,7.0,2.0,3.0,ek
0.0,0.0,140.0,2.0,111.0,13.0,33.0,104.0,-0.17,0.95,0.17,6.0,4.0,5.0,ek
0.0,0.0,140.0,4.0,111.0,15.0,31.0,104.0,-0.16,0.95,0.16,5.0,4.0,7.0,ek
0.0,0.0,140.0,5.0,111.0,15.0,28.0,101.0,-0.15,0.96,0.15,6.0,6.0,9.0,ek
0.0,0.0,139.0,5.0,108.0,16.0,31.0,101.0,-0.14,0.96,0.14,7.0,5.0,11.0,ek
0.0,0.0,139.0,5.0,108.0,15.0,31.0,101.0,-0.13,0.96,0.14,8.0,5.0,12.0,ek
0.0,0.0,139.0,5.0,108.0,13.0,33.0,101.0,-0.12,0.96,0.12,8.0,6.0,13.0,ek
0.0,0.0,138.0,5.0,102.0,16.0,38.0,101.0,-0.11,0.97,0.11,8.0,7.0,14.0,ek
0.0,0.0,138.0,4.0,99.0,16.0,40.0,94.0,-0.09,0.97,0.11,8.0,7.0,15.0,ek
0.0,0.0,139.0,4.0,99.0,16.0,40.0,94.0,-0.08,0.97,0.1,7.0,7.0,15.0,ek
0.0,0.0,139.0,4.0,96.0,16.0,42.0,91.0,-0.06,0.97,0.09,8.0,6.0,14.0,ek
0.0,0.0,140.0,4.0,99.0,16.0,42.0,86.0,-0.05,0.97,0.08,7.0,5.0,14.0,ek
0.0,0.0,139.0,2.0,99.0,15.0,47.0,91.0,-0.03,0.98,0.08,7.0,5.0,14.0,ek
0.0,0.0,139.0,2.0,99.0,16.0,47.0,94.0,-0.02,0.98,0.07,5.0,4.0,13.0,ek
0.0,0.0,140.0,2.0,102.0,12.0,47.0,91.0,-0.0,0.98,0.06,6.0,6.0,12.0,ek
0.0,0.0,140.0,2.0,105.0,15.0,45.0,91.0,0.01,0.98,0.05,5.0,6.0,12.0,ek
0.0,0.0,140.0,2.0,102.0,16.0,45.0,91.0,0.02,0.98,0.05,4.0,6.0,11.0,ek
0.0,0.0,140.0,2.0,99.0,16.0,38.0,91.0,0.03,0.98,0.04,4.0,6.0,10.0,ek
0.0,0.0,141.0,2.0,102.0,15.0,42.0,104.0,0.04,0.99,0.03,3.0,6.0,9.0,ek
0.0,0.0,141.0,2.0,105.0,15.0,45.0,96.0,0.05,0.99,0.03,3.0,6.0,8.0,ek
0.0,0.0,143.0,3.0,105.0,15.0,45.0,99.0,0.06,0.98,0.03,3.0,6.0,8.0,ek
0.0,0.0,142.0,4.0,99.0,15.0,54.0,99.0,0.06,0.98,0.02,3.0,6.0,7.0,ek
0.0,0.0,142.0,3.0,102.0,15.0,52.0,94.0,0.07,0.98,0.02,2.0,6.0,6.0,ek
0.0,0.0,142.0,3.0,105.0,15.0,52.0,91.0,0.08,0.98,0.01,3.0,5.0,6.0,ek
0.0,0.0,141.0,3.0,102.0,18.0,50.0,91.0,0.08,0.98,0.01,2.0,5.0,5.0,ek
0.0,0.0,141.0,4.0,102.0,18.0,50.0,91.0,0.09,0.98,0.01,2.0,5.0,5.0,ek
0.0,0.0,142.0,4.0,102.0,16.0,50.0,91.0,0.1,0.98,0.01,1.0,5.0,4.0,ek
0.0,0.0,142.0,4.0,108.0,16.0,50.0,94.0,0.1,0.98,0.0,-1.0,6.0,1.0,ek
0.0,0.0,141.0,3.0,105.0,16.0,45.0,86.0,0.1,0.98,0.01,-3.0,6.0,-2.0,ek
0.0,0.0,141.0,2.0,102.0,16.0,40.0,96.0,0.1,0.98,0.01,-5.0,7.0,-6.0,ek
0.0,0.0,137.0,2.0,102.0,18.0,40.0,99.0,0.09,0.98,0.02,-7.0,7.0,-9.0,ek
0.0,0.0,137.0,2.0,99.0,19.0,31.0,96.0,0.08,0.98,0.02,-9.0,8.0,-13.0,ek
0.0,0.0,137.0,2.0,96.0,18.0,28.0,96.0,0.07,0.98,0.03,-11.0,8.0,-17.0,ek
0.0,0.0,137.0,2.0,96.0,19.0,28.0,99.0,0.04,0.98,0.05,-13.0,10.0,-21.0,ek
0.0,0.0,138.0,2.0,96.0,19.0,31.0,96.0,0.03,0.98,0.06,-15.0,11.0,-25.0,ek
0.0,0.0,138.0,2.0,96.0,21.0,35.0,99.0,0.0,0.98,0.07,-17.0,12.0,-28.0,ek
0.0,0.0,138.0,2.0,93.0,22.0,33.0,94.0,-0.03,0.97,0.09,-19.0,15.0,-31.0,ek
0.0,0.0,139.0,3.0,87.0,22.0,38.0,96.0,-0.06,0.97,0.11,-20.0,16.0,-32.0,ek
0.0,0.0,139.0,3.0,90.0,19.0,38.0,99.0,-0.09,0.96,0.12,-19.0,16.0,-32.0,ek
0.0,0.0,139.0,3.0,93.0,19.0,40.0,96.0,-0.12,0.96,0.13,-19.0,16.0,-32.0,ek
0.0,0.0,142.0,3.0,90.0,18.0,40.0,96.0,-0.16,0.95,0.15,-18.0,16.0,-32.0,ek
0.0,0.0,142.0,4.0,90.0,18.0,42.0,96.0,-0.18,0.94,0.16,-19.0,15.0,-31.0,ek
0.0,0.0,142.0,4.0,87.0,19.0,47.0,99.0,-0.22,0.93,0.18,-17.0,15.0,-28.0,ek
0.0,0.0,140.0,4.0,84.0,21.0,47.0,99.0,-0.23,0.93,0.18,-19.0,15.0,-28.0,ek
0.0,0.0,140.0,3.0,84.0,19.0,42.0,99.0,-0.26,0.92,0.2,-18.0,13.0,-26.0,ek
0.0,0.0,140.0,3.0,81.0,19.0,42.0,96.0,-0.29,0.91,0.21,-19.0,14.0,-25.0,ek
0.0,0.0,141.0,2.0,87.0,16.0,45.0,101.0,-0.31,0.9,0.23,-17.0,12.0,-21.0,ek
0.0,0.0,142.0,2.0,87.0,16.0,45.0,101.0,-0.33,0.9,0.23,-15.0,12.0,-19.0,ek
0.0,0.0,141.0,3.0,87.0,24.0,45.0,101.0,-0.34,0.88,0.24,-14.0,11.0,-17.0,ek
0.0,0.0,141.0,3.0,84.0,25.0,42.0,101.0,-0.36,0.88,0.25,-13.0,10.0,-15.0,ek
0.0,0.0,140.0,2.0,87.0,24.0,42.0,99.0,-0.37,0.87,0.26,-11.0,8.0,-12.0,ek
0.0,0.0,141.0,3.0,84.0,24.0,45.0,99.0,-0.39,0.87,0.26,-7.0,2.0,-8.0,ek
0.0,0.0,141.0,2.0,87.0,22.0,42.0,99.0,-0.39,0.86,0.27,-2.0,-4.0,-3.0,ek
0.0,0.0,143.0,2.0,90.0,21.0,42.0,99.0,-0.39,0.86,0.27,4.0,-9.0,3.0,ek
0.0,0.0,143.0,2.0,87.0,22.0,40.0,101.0,-0.37,0.86,0.27,7.0,-14.0,7.0,ek
0.0,0.0,142.0,2.0,90.0,21.0,38.0,101.0,-0.36,0.86,0.27,13.0,-18.0,10.0,ek
0.0,0.0,141.0,2.0,87.0,21.0,40.0,104.0,-0.34,0.87,0.26,14.0,-23.0,12.0,ek
0.0,0.0,140.0,1.0,84.0,21.0,38.0,104.0,-0.32,0.88,0.26,15.0,-25.0,14.0,ek
0.0,0.0,140.0,1.0,84.0,16.0,38.0,99.0,-0.3,0.89,0.25,15.0,-28.0,15.0,ek
0.0,0.0,141.0,0.0,90.0,18.0,38.0,101.0,-0.28,0.9,0.25,17.0,-29.0,16.0,ek
0.0,0.0,140.0,0.0,90.0,18.0,40.0,101.0,-0.25,0.91,0.24,17.0,-28.0,16.0,ek
0.0,0.0,140.0,0.0,90.0,18.0,35.0,101.0,-0.22,0.91,0.23,18.0,-21.0,14.0,ek
0.0,0.0,139.0,0.0,87.0,19.0,42.0,101.0,-0.2,0.92,0.22,17.0,-15.0,9.0,ek
0.0,0.0,139.0,0.0,87.0,19.0,45.0,104.0,-0.19,0.93,0.2,16.0,-7.0,4.0,ek
0.0,0.0,139.0,0.0,90.0,18.0,47.0,104.0,-0.2,0.93,0.19,15.0,-2.0,0.0,ek
0.0,0.0,139.0,0.0,93.0,18.0,50.0,101.0,-0.19,0.94,0.17,15.0,3.0,-2.0,ek
0.0,0.0,140.0,0.0,93.0,18.0,47.0,99.0,-0.2,0.93,0.16,16.0,5.0,-5.0,ek
0.0,0.0,140.0,0.0,96.0,18.0,52.0,101.0,-0.2,0.94,0.14,18.0,7.0,-7.0,ek
0.0,0.0,139.0,0.0,93.0,16.0,50.0,104.0,-0.21,0.94,0.12,18.0,9.0,-8.0,ek
0.0,0.0,139.0,0.0,93.0,16.0,50.0,104.0,-0.22,0.94,0.1,19.0,10.0,-8.0,ek
0.0,0.0,140.0,0.0,93.0,15.0,52.0,104.0,-0.23,0.94,0.07,18.0,10.0,-9.0,ek
0.0,0.0,141.0,1.0,96.0,16.0,54.0,104.0,-0.24,0.94,0.06,16.0,8.0,-9.0,ek
0.0,0.0,141.0,1.0,99.0,15.0,42.0,104.0,-0.25,0.93,0.04,14.0,6.0,-8.0,ek
0.0,0.0,142.0,1.0,96.0,15.0,45.0,101.0,-0.26,0.93,0.03,14.0,2.0,-6.0,ek
0.0,0.0,141.0,2.0,93.0,16.0,45.0,101.0,-0.26,0.93,0.01,13.0,2.0,-6.0,ek
0.0,0.0,142.0,3.0,90.0,16.0,47.0,104.0,-0.27,0.94,0.01,11.0,-1.0,-6.0,ek
0.0,0.0,141.0,4.0,96.0,16.0,50.0,104.0,-0.28,0.94,-0.0,8.0,0.0,-4.0,ek
0.0,0.0,142.0,4.0,96.0,16.0,50.0,106.0,-0.28,0.94,-0.0,6.0,-2.0,-3.0,ek
0.0,0.0,143.0,4.0,96.0,16.0,52.0,106.0,-0.28,0.94,-0.01,5.0,0.0,-3.0,ek
0.0,0.0,143.0,4.0,96.0,19.0,54.0,104.0,-0.28,0.94,-0.02,3.0,-1.0,-3.0,ek
0.0,0.0,143.0,4.0,99.0,19.0,54.0,106.0,-0.28,0.94,-0.02,1.0,0.0,-2.0,ek
0.0,0.0,143.0,4.0,99.0,19.0,54.0,106.0,-0.28,0.94,-0.02,-2.0,0.0,-2.0,ek
0.0,0.0,142.0,4.0,99.0,19.0,57.0,109.0,-0.28,0.95,-0.03,-5.0,1.0,-2.0,ek
0.0,0.0,143.0,4.0,96.0,19.0,54.0,111.0,-0.29,0.95,-0.02,-9.0,-3.0,0.0,ek
0.0,0.0,142.0,4.0,99.0,18.0,57.0,109.0,-0.28,0.94,-0.01,-14.0,-4.0,3.0,ek
0.0,0.0,142.0,3.0,96.0,18.0,50.0,109.0,-0.27,0.94,0.0,-17.0,-4.0,4.0,ek
0.0,0.0,142.0,2.0,96.0,18.0,47.0,109.0,-0.26,0.94,0.01,-21.0,-3.0,5.0,ek
0.0,0.0,142.0,3.0,96.0,19.0,52.0,109.0,-0.26,0.94,0.03,-24.0,-3.0,5.0,ek
0.0,0.0,141.0,4.0,96.0,19.0,50.0,111.0,-0.26,0.94,0.06,-29.0,-1.0,6.0,ek
0.0,0.0,140.0,5.0,93.0,16.0,52.0,114.0,-0.25,0.94,0.09,-31.0,-1.0,6.0,ek
0.0,0.0,140.0,6.0,93.0,16.0,50.0,111.0,-0.24,0.94,0.12,-33.0,-2.0,5.0,ek
0.0,0.0,140.0,6.0,93.0,16.0,50.0,109.0,-0.24,0.94,0.15,-34.0,-2.0,6.0,ek
0.0,0.0,140.0,7.0,90.0,16.0,50.0,109.0,-0.23,0.93,0.18,-36.0,-2.0,5.0,ek
0.0,0.0,140.0,7.0,90.0,18.0,50.0,111.0,-0.22,0.92,0.21,-37.0,2.0,4.0,ek
0.0,0.0,141.0,7.0,93.0,16.0,62.0,111.0,-0.22,0.92,0.25,-37.0,4.0,3.0,ek
0.0,0.0,141.0,8.0,93.0,18.0,64.0,111.0,-0.22,0.91,0.29,-38.0,5.0,3.0,ek
0.0,0.0,142.0,8.0,90.0,18.0,64.0,111.0,-0.21,0.9,0.32,-36.0,3.0,2.0,ek
0.0,0.0,142.0,8.0,93.0,18.0,62.0,109.0,-0.21,0.9,0.35,-36.0,4.0,2.0,ek
0.0,0.0,142.0,7.0,96.0,18.0,59.0,106.0,-0.21,0.89,0.37,-31.0,3.0,2.0,ek
0.0,0.0,142.0,7.0,96.0,18.0,59.0,111.0,-0.21,0.88,0.4,-30.0,3.0,2.0,ek
0.0,0.0,143.0,7.0,102.0,18.0,45.0,111.0,-0.2,0.86,0.42,-26.0,4.0,2.0,ek
0.0,0.0,143.0,7.0,102.0,21.0,50.0,111.0,-0.2,0.86,0.44,-21.0,4.0,2.0,ek
0.0,0.0,143.0,7.0,102.0,21.0,45.0,111.0,-0.2,0.85,0.46,-13.0,3.0,1.0,ek
0.0,0.0,143.0,6.0,105.0,19.0,45.0,106.0,-0.2,0.85,0.47,-6.0,3.0,1.0,ek
0.0,0.0,143.0,6.0,102.0,21.0,33.0,106.0,-0.19,0.85,0.46,1.0,2.0,0.0,ek
0.0,0.0,144.0,6.0,105.0,19.0,33.0,106.0,-0.2,0.84,0.45,7.0,1.0,-1.0,ek
0.0,0.0,144.0,5.0,108.0,19.0,33.0,109.0,-0.2,0.85,0.44,14.0,2.0,-2.0,ek
0.0,0.0,143.0,5.0,102.0,19.0,35.0,109.0,-0.2,0.86,0.43,19.0,2.0,0.0,ek
0.0,0.0,142.0,5.0,99.0,19.0,38.0,109.0,-0.2,0.87,0.41,23.0,3.0,0.0,ek
0.0,0.0,141.0,5.0,99.0,19.0,33.0,104.0,-0.2,0.88,0.39,26.0,3.0,0.0,ek
0.0,0.0,141.0,5.0,99.0,19.0,47.0,106.0,-0.2,0.89,0.36,27.0,3.0,1.0,ek
0.0,0.0,142.0,4.0,96.0,18.0,50.0,109.0,-0.2,0.9,0.33,27.0,2.0,1.0,ek
0.0,0.0,142.0,4.0,96.0,18.0,52.0,109.0,-0.2,0.91,0.3,25.0,5.0,2.0,ek
0.0,0.0,141.0,4.0,93.0,18.0,54.0,111.0,-0.2,0.92,0.28,22.0,5.0,1.0,ek
0.0,0.0,141.0,3.0,96.0,18.0,54.0,111.0,-0.21,0.93,0.26,20.0,6.0,2.0,ek
0.0,0.0,141.0,2.0,96.0,18.0,57.0,109.0,-0.2,0.94,0.25,17.0,5.0,3.0,ek
0.0,0.0,140.0,2.0,90.0,19.0,54.0,109.0,-0.19,0.94,0.23,13.0,5.0,3.0,ek
0.0,0.0,141.0,2.0,93.0,18.0,52.0,111.0,-0.19,0.94,0.22,10.0,4.0,2.0,ek
0.0,0.0,141.0,2.0,90.0,19.0,52.0,111.0,-0.2,0.94,0.21,7.0,4.0,1.0,ek
0.0,0.0,141.0,2.0,90.0,18.0,52.0,109.0,-0.2,0.94,0.2,5.0,3.0,0.0,ek
0.0,0.0,142.0,2.0,87.0,19.0,54.0,109.0,-0.2,0.94,0.2,3.0,3.0,0.0,ek
0.0,0.0,139.0,2.0,90.0,19.0,50.0,106.0,-0.2,0.94,0.19,1.0,3.0,0.0,ek
0.0,0.0,139.0,3.0,93.0,18.0,50.0,106.0,-0.19,0.94,0.19,0.0,3.0,0.0,ek
0.0,0.0,138.0,2.0,90.0,18.0,47.0,109.0,-0.19,0.94,0.19,-1.0,2.0,0.0,ek
0.0,0.0,138.0,3.0,90.0,18.0,47.0,109.0,-0.19,0.94,0.19,0.0,0.0,-1.0,ek
0.0,0.0,138.0,3.0,87.0,19.0,47.0,109.0,-0.2,0.94,0.19,0.0,-4.0,0.0,ek
0.0,0.0,138.0,3.0,90.0,18.0,45.0,109.0,-0.19,0.94,0.18,-1.0,-13.0,0.0,ek
0.0,0.0,139.0,3.0,93.0,18.0,47.0,109.0,-0.18,0.94,0.19,0.0,-14.0,0.0,ek
0.0,0.0,139.0,2.0,93.0,18.0,47.0,109.0,-0.15,0.94,0.18,-2.0,-10.0,0.0,ek
0.0,0.0,139.0,3.0,93.0,18.0,54.0,111.0,-0.16,0.94,0.19,-2.0,2.0,0.0,ek
0.0,0.0,139.0,4.0,87.0,18.0,50.0,109.0,-0.16,0.94,0.19,-2.0,16.0,0.0,ek
0.0,0.0,140.0,5.0,90.0,19.0,45.0,109.0,-0.17,0.93,0.18,-1.0,25.0,0.0,ek
0.0,0.0,140.0,5.0,90.0,19.0,50.0,109.0,-0.18,0.94,0.17,-3.0,34.0,-1.0,ek
0.0,0.0,140.0,5.0,93.0,19.0,50.0,109.0,-0.18,0.94,0.17,-3.0,40.0,-1.0,ek
0.0,0.0,140.0,5.0,90.0,19.0,50.0,109.0,-0.2,0.94,0.16,-6.0,49.0,-1.0,ek
0.0,0.0,140.0,5.0,90.0,19.0,50.0,111.0,-0.19,0.94,0.15,-6.0,58.0,0.0,ek
0.0,0.0,140.0,4.0,87.0,19.0,54.0,109.0,-0.22,0.93,0.15,-6.0,75.0,0.0,ek
0.0,0.0,139.0,4.0,90.0,18.0,52.0,106.0,-0.23,0.93,0.13,-6.0,82.0,0.0,ek
0.0,0.0,139.0,4.0,93.0,18.0,76.0,106.0,-0.26,0.93,0.12,-6.0,85.0,1.0,ek
0.0,0.0,140.0,4.0,87.0,18.0,73.0,109.0,-0.26,0.93,0.1,-7.0,78.0,2.0,ek
0.0,0.0,140.0,2.0,87.0,16.0,71.0,106.0,-0.27,0.93,0.1,-8.0,71.0,3.0,ek
0.0,0.0,140.0,1.0,84.0,15.0,78.0,109.0,-0.27,0.94,0.09,-8.0,68.0,4.0,ek
0.0,0.0,139.0,1.0,87.0,15.0,69.0,106.0,-0.26,0.93,0.08,-7.0,65.0,5.0,ek
0.0,0.0,138.0,1.0,84.0,16.0,71.0,104.0,-0.27,0.93,0.07,-7.0,65.0,6.0,ek
0.0,0.0,138.0,1.0,78.0,16.0,69.0,101.0,-0.25,0.93,0.05,-4.0,60.0,6.0,ek
0.0,0.0,138.0,2.0,84.0,16.0,66.0,101.0,-0.25,0.93,0.05,-3.0,54.0,6.0,ek
0.0,0.0,138.0,2.0,84.0,16.0,64.0,99.0,-0.23,0.94,0.03,-2.0,40.0,5.0,ek
0.0,0.0,138.0,2.0,81.0,15.0,62.0,99.0,-0.25,0.94,0.02,0.0,28.0,4.0,ek
0.0,0.0,139.0,2.0,87.0,15.0,40.0,99.0,-0.23,0.95,0.01,0.0,15.0,3.0,ek
0.0,0.0,138.0,0.0,90.0,15.0,38.0,94.0,-0.24,0.94,0.01,1.0,5.0,2.0,ek
0.0,0.0,138.0,0.0,93.0,16.0,35.0,96.0,-0.22,0.95,-0.0,3.0,-11.0,1.0,ek
0.0,0.0,138.0,0.0,93.0,15.0,31.0,94.0,-0.23,0.95,0.0,5.0,-28.0,0.0,ek
0.0,0.0,139.0,0.0,93.0,15.0,38.0,99.0,-0.23,0.95,-0.0,6.0,-42.0,0.0,ek
0.0,0.0,140.0,0.0,93.0,13.0,38.0,99.0,-0.22,0.95,0.0,7.0,-56.0,-1.0,ek
0.0,0.0,140.0,0.0,102.0,13.0,40.0,99.0,-0.22,0.95,0.01,7.0,-67.0,-1.0,ek
0.0,0.0,142.0,0.0,99.0,13.0,42.0,99.0,-0.22,0.95,0.02,8.0,-74.0,0.0,ek
0.0,0.0,142.0,0.0,99.0,15.0,40.0,104.0,-0.23,0.95,0.03,8.0,-76.0,0.0,ek
0.0,0.0,142.0,1.0,96.0,13.0,42.0,104.0,-0.21,0.95,0.04,9.0,-79.0,0.0,ek
0.0,0.0,142.0,1.0,93.0,13.0,45.0,104.0,-0.21,0.95,0.05,10.0,-80.0,0.0,ek
0.0,0.0,143.0,4.0,93.0,15.0,47.0,104.0,-0.19,0.96,0.06,8.0,-83.0,0.0,ek
0.0,0.0,143.0,5.0,90.0,15.0,50.0,104.0,-0.2,0.96,0.08,6.0,-75.0,-1.0,ek
0.0,0.0,143.0,7.0,90.0,15.0,54.0,104.0,-0.18,0.96,0.08,2.0,-67.0,-1.0,ek
0.0,0.0,142.0,7.0,90.0,16.0,50.0,101.0,-0.19,0.96,0.1,-2.0,-58.0,-3.0,ek
0.0,0.0,142.0,8.0,90.0,16.0,47.0,101.0,-0.19,0.95,0.12,-8.0,-51.0,-4.0,ek
0.0,0.0,141.0,8.0,90.0,16.0,47.0,101.0,-0.19,0.95,0.14,-13.0,-42.0,-6.0,ek
0.0,0.0,141.0,8.0,90.0,16.0,45.0,99.0,-0.2,0.94,0.17,-16.0,-36.0,-6.0,ek
0.0,0.0,140.0,8.0,93.0,16.0,45.0,99.0,-0.19,0.94,0.19,-20.0,-28.0,-6.0,ek
0.0,0.0,140.0,8.0,90.0,19.0,47.0,99.0,-0.2,0.93,0.21,-25.0,-18.0,-5.0,ek
0.0,0.0,139.0,8.0,93.0,19.0,45.0,99.0,-0.21,0.92,0.24,-29.0,-4.0,-4.0,ek
0.0,0.0,139.0,9.0,96.0,18.0,47.0,104.0,-0.22,0.91,0.26,-32.0,7.0,-3.0,ek
0.0,0.0,139.0,8.0,90.0,16.0,45.0,101.0,-0.23,0.9,0.29,-35.0,11.0,-3.0,ek
0.0,0.0,140.0,7.0,99.0,16.0,45.0,104.0,-0.24,0.89,0.32,-37.0,13.0,-3.0,ek
0.0,0.0,140.0,8.0,99.0,16.0,47.0,101.0,-0.24,0.87,0.34,-38.0,15.0,-2.0,ek
0.0,0.0,140.0,7.0,99.0,16.0,50.0,101.0,-0.26,0.86,0.38,-34.0,16.0,-2.0,ek
0.0,0.0,140.0,8.0,93.0,16.0,45.0,96.0,-0.26,0.84,0.4,-28.0,11.0,-2.0,ek
0.0,0.0,140.0,8.0,93.0,16.0,47.0,94.0,-0.27,0.84,0.41,-24.0,5.0,-3.0,ek
0.0,0.0,140.0,9.0,87.0,18.0,50.0,94.0,-0.27,0.83,0.42,-16.0,-3.0,-4.0,ek
0.0,0.0,140.0,8.0,84.0,18.0,47.0,91.0,-0.27,0.83,0.43,-9.0,-9.0,-6.0,ek
0.0,0.0,141.0,8.0,84.0,18.0,47.0,91.0,-0.26,0.83,0.44,-3.0,-21.0,-8.0,ek
0.0,0.0,141.0,8.0,84.0,18.0,45.0,91.0,-0.25,0.83,0.45,2.0,-35.0,-11.0,ek
0.0,0.0,141.0,8.0,96.0,18.0,47.0,94.0,-0.25,0.84,0.45,7.0,-40.0,-11.0,ek
0.0,0.0,140.0,8.0,90.0,19.0,45.0,94.0,-0.23,0.84,0.45,11.0,-44.0,-10.0,ek
0.0,0.0,140.0,8.0,90.0,18.0,45.0,96.0,-0.23,0.84,0.46,14.0,-50.0,-8.0,ek
0.0,0.0,141.0,10.0,90.0,18.0,45.0,94.0,-0.21,0.85,0.45,13.0,-52.0,-7.0,ek
0.0,0.0,141.0,10.0,90.0,18.0,66.0,99.0,-0.18,0.85,0.45,10.0,-51.0,-6.0,ek
0.0,0.0,141.0,9.0,96.0,18.0,66.0,96.0,-0.17,0.86,0.46,6.0,-49.0,-4.0,ek
0.0,0.0,140.0,8.0,102.0,16.0,62.0,96.0,-0.14,0.86,0.47,1.0,-44.0,-3.0,ek
0.0,0.0,140.0,8.0,105.0,16.0,59.0,101.0,-0.13,0.86,0.47,-1.0,-43.0,-2.0,ek
