idxUp,idxLow,midUp,midLow,ringUp,ringLow,thumb,pinky,ax,ay,az,gx,gy,gz,label
168.0,0.0,166.0,21.0,420.0,111.0,0.0,76.0,-0.93,0.3,0.01,0.0,3.0,0.0,nga
164.0,0.0,164.0,16.0,387.0,98.0,0.0,53.0,-0.92,0.3,0.01,0.0,2.0,0.0,nga
166.0,0.0,162.0,13.0,363.0,84.0,0.0,27.0,-0.92,0.3,0.01,0.0,2.0,0.0,nga
166.0,0.0,159.0,9.0,333.0,72.0,0.0,2.0,-0.92,0.31,0.01,0.0,2.0,0.0,nga
168.0,0.0,158.0,6.0,300.0,60.0,0.0,0.0,-0.92,0.31,0.01,0.0,1.0,0.0,nga
162.0,0.0,155.0,1.0,264.0,46.0,0.0,0.0,-0.92,0.31,0.0,-1.0,1.0,0.0,nga
152.0,0.0,153.0,0.0,234.0,36.0,0.0,0.0,-0.91,0.31,0.0,-2.0,1.0,0.0,nga
152.0,0.0,149.0,0.0,207.0,27.0,0.0,0.0,-0.92,0.31,0.0,-2.0,2.0,1.0,nga
150.0,0.0,146.0,0.0,177.0,13.0,0.0,0.0,-0.92,0.32,-0.0,-3.0,4.0,1.0,nga
152.0,0.0,144.0,0.0,150.0,3.0,0.0,0.0,-0.92,0.31,0.0,-4.0,4.0,2.0,nga
156.0,0.0,144.0,0.0,153.0,3.0,0.0,0.0,-0.93,0.31,-0.0,-4.0,3.0,2.0,nga
158.0,0.0,144.0,0.0,153.0,3.0,0.0,0.0,-0.93,0.31,0.01,-4.0,4.0,2.0,nga
156.0,0.0,145.0,0.0,150.0,3.0,0.0,0.0,-0.94,0.3,0.01,-3.0,4.0,2.0,nga
158.0,0.0,145.0,0.0,153.0,3.0,0.0,0.0,-0.93,0.3,0.01,-3.0,4.0,2.0,nga
158.0,0.0,144.0,0.0,153.0,3.0,0.0,0.0,-0.93,0.3,0.02,-2.0,5.0,2.0,nga
158.0,0.0,144.0,0.0,156.0,3.0,0.0,0.0,-0.92,0.31,0.02,-2.0,4.0,1.0,nga
172.0,0.0,144.0,0.0,153.0,0.0,0.0,0.0,-0.93,0.31,0.02,0.0,4.0,1.0,nga
178.0,0.0,144.0,0.0,150.0,0.0,4.0,0.0,-0.92,0.31,0.02,-2.0,2.0,1.0,nga
182.0,0.0,145.0,0.0,147.0,0.0,2.0,0.0,-0.92,0.31,0.02,-1.0,1.0,0.0,nga
182.0,0.0,146.0,0.0,150.0,0.0,0.0,0.0,-0.92,0.31,0.02,-1.0,2.0,0.0,nga
180.0,0.0,146.0,0.0,150.0,0.0,0.0,0.0,-0.91,0.32,0.02,-1.0,2.0,0.0,nga
180.0,0.0,146.0,0.0,147.0,0.0,0.0,0.0,-0.91,0.32,0.02,-2.0,2.0,0.0,nga
172.0,0.0,146.0,0.0,147.0,0.0,0.0,0.0,-0.91,0.32,0.01,-2.0,2.0,0.0,nga
168.0,0.0,146.0,0.0,144.0,0.0,0.0,0.0,-0.91,0.33,0.01,-2.0,2.0,0.0,nga
168.0,0.0,146.0,0.0,144.0,0.0,2.0,0.0,-0.91,0.33,0.01,-3.0,1.0,-1.0,nga
170.0,0.0,147.0,0.0,144.0,0.0,4.0,0.0,-0.92,0.32,0.01,-4.0,2.0,-1.0,nga
168.0,0.0,147.0,0.0,144.0,0.0,0.0,0.0,-0.91,0.32,0.02,-4.0,1.0,-2.0,nga
160.0,0.0,148.0,0.0,156.0,0.0,0.0,0.0,-0.91,0.32,0.02,-3.0,2.0,-3.0,nga
158.0,2.0,148.0,0.0,156.0,0.0,0.0,0.0,-0.92,0.31,0.02,-3.0,2.0,-4.0,nga
154.0,2.0,148.0,0.0,159.0,0.0,0.0,0.0,-0.92,0.31,0.02,-3.0,2.0,-5.0,nga
156.0,4.0,148.0,0.0,162.0,1.0,0.0,0.0,-0.92,0.31,0.02,-3.0,2.0,-6.0,nga
154.0,4.0,148.0,0.0,165.0,1.0,0.0,0.0,-0.92,0.3,0.02,-3.0,3.0,-6.0,nga
160.0,2.0,148.0,0.0,168.0,3.0,0.0,0.0,-0.93,0.3,0.02,-4.0,3.0,-7.0,nga
164.0,0.0,148.0,0.0,165.0,3.0,0.0,0.0,-0.92,0.29,0.03,-5.0,4.0,-6.0,nga
164.0,0.0,149.0,0.0,165.0,3.0,0.0,0.0,-0.92,0.28,0.02,-4.0,4.0,-6.0,nga
166.0,0.0,148.0,0.0,165.0,3.0,0.0,0.0,-0.93,0.28,0.02,-2.0,5.0,-6.0,nga
164.0,4.0,148.0,0.0,168.0,3.0,0.0,0.0,-0.94,0.27,0.02,-2.0,5.0,-5.0,nga
158.0,2.0,148.0,0.0,156.0,7.0,0.0,0.0,-0.93,0.27,0.02,-2.0,5.0,-3.0,nga
152.0,2.0,148.0,0.0,156.0,7.0,0.0,0.0,-0.93,0.27,0.01,-1.0,6.0,-2.0,nga
152.0,2.0,148.0,0.0,150.0,7.0,0.0,0.0,-0.94,0.27,0.0,0.0,6.0,0.0,nga
152.0,4.0,147.0,0.0,144.0,7.0,0.0,0.0,-0.94,0.27,0.01,0.0,6.0,1.0,nga
150.0,4.0,147.0,0.0,141.0,7.0,0.0,0.0,-0.93,0.27,0.01,1.0,5.0,1.0,nga
150.0,4.0,147.0,0.0,138.0,7.0,0.0,0.0,-0.93,0.27,0.0,1.0,7.0,1.0,nga
148.0,4.0,147.0,0.0,144.0,6.0,0.0,0.0,-0.93,0.27,-0.0,2.0,9.0,1.0,nga
150.0,2.0,147.0,0.0,144.0,6.0,0.0,0.0,-0.93,0.28,-0.01,1.0,11.0,1.0,nga
146.0,2.0,148.0,0.0,141.0,7.0,0.0,0.0,-0.93,0.27,-0.01,-1.0,13.0,-1.0,nga
160.0,2.0,148.0,0.0,144.0,6.0,0.0,0.0,-0.93,0.28,-0.02,-2.0,14.0,-5.0,nga
168.0,2.0,148.0,0.0,144.0,1.0,2.0,0.0,-0.93,0.27,-0.04,-4.0,14.0,-10.0,nga
172.0,0.0,148.0,0.0,144.0,0.0,0.0,0.0,-0.93,0.26,-0.05,-6.0,13.0,-14.0,nga
176.0,0.0,147.0,0.0,135.0,0.0,0.0,0.0,-0.94,0.26,-0.05,-8.0,10.0,-20.0,nga
172.0,0.0,147.0,0.0,138.0,0.0,0.0,0.0,-0.94,0.24,-0.06,-9.0,8.0,-23.0,nga
176.0,0.0,147.0,0.0,141.0,0.0,0.0,0.0,-0.95,0.22,-0.07,-10.0,4.0,-26.0,nga
172.0,0.0,147.0,0.0,141.0,0.0,0.0,0.0,-0.96,0.19,-0.06,-9.0,0.0,-27.0,nga
174.0,2.0,147.0,0.0,141.0,0.0,0.0,0.0,-0.96,0.17,-0.07,-7.0,-9.0,-26.0,nga
172.0,2.0,147.0,0.0,141.0,1.0,0.0,0.0,-0.97,0.14,-0.04,-3.0,-15.0,-25.0,nga
168.0,4.0,147.0,0.0,141.0,3.0,0.0,0.0,-0.96,0.13,-0.03,1.0,-20.0,-20.0,nga
158.0,4.0,146.0,2.0,138.0,3.0,0.0,0.0,-0.97,0.11,-0.0,5.0,-24.0,-15.0,nga
156.0,8.0,146.0,5.0,138.0,7.0,0.0,0.0,-0.96,0.1,0.02,8.0,-25.0,-7.0,nga
158.0,12.0,146.0,8.0,138.0,9.0,0.0,0.0,-0.97,0.1,0.05,11.0,-26.0,0.0,nga
156.0,14.0,146.0,13.0,144.0,10.0,0.0,0.0,-0.96,0.1,0.07,13.0,-25.0,6.0,nga
156.0,12.0,147.0,17.0,147.0,10.0,0.0,0.0,-0.95,0.11,0.1,15.0,-22.0,12.0,nga
156.0,16.0,147.0,21.0,147.0,12.0,0.0,0.0,-0.95,0.13,0.12,16.0,-18.0,16.0,nga
152.0,16.0,147.0,26.0,147.0,13.0,0.0,0.0,-0.94,0.15,0.14,15.0,-12.0,19.0,nga
152.0,18.0,147.0,29.0,147.0,15.0,0.0,0.0,-0.94,0.17,0.15,14.0,-4.0,20.0,nga
154.0,20.0,147.0,30.0,147.0,15.0,0.0,0.0,-0.93,0.19,0.15,10.0,3.0,19.0,nga
156.0,22.0,147.0,32.0,150.0,13.0,0.0,0.0,-0.93,0.21,0.15,7.0,9.0,17.0,nga
154.0,24.0,146.0,33.0,147.0,13.0,0.0,0.0,-0.93,0.22,0.14,4.0,14.0,14.0,nga
154.0,24.0,146.0,33.0,150.0,13.0,0.0,0.0,-0.93,0.24,0.13,0.0,18.0,11.0,nga
156.0,24.0,146.0,33.0,147.0,13.0,0.0,0.0,-0.92,0.25,0.11,-2.0,20.0,6.0,nga
154.0,28.0,146.0,31.0,147.0,13.0,11.0,0.0,-0.93,0.25,0.09,-7.0,24.0,2.0,nga
158.0,20.0,146.0,29.0,147.0,13.0,14.0,0.0,-0.93,0.26,0.08,-8.0,24.0,-3.0,nga
156.0,20.0,146.0,27.0,144.0,15.0,23.0,0.0,-0.93,0.25,0.05,-10.0,25.0,-7.0,nga
160.0,18.0,145.0,27.0,144.0,13.0,21.0,0.0,-0.94,0.25,0.03,-11.0,22.0,-12.0,nga
160.0,18.0,145.0,27.0,138.0,13.0,23.0,0.0,-0.94,0.24,0.01,-14.0,20.0,-16.0,nga
160.0,18.0,144.0,25.0,138.0,12.0,21.0,0.0,-0.95,0.22,-0.0,-14.0,14.0,-19.0,nga
162.0,14.0,143.0,24.0,138.0,13.0,26.0,0.0,-0.96,0.2,-0.01,-15.0,10.0,-21.0,nga
158.0,14.0,143.0,23.0,138.0,13.0,23.0,0.0,-0.97,0.18,-0.01,-14.0,4.0,-22.0,nga
162.0,6.0,144.0,23.0,138.0,13.0,23.0,0.0,-0.96,0.16,-0.01,-12.0,-2.0,-22.0,nga
158.0,6.0,143.0,23.0,138.0,15.0,31.0,0.0,-0.97,0.14,-0.01,-9.0,-7.0,-21.0,nga
154.0,2.0,144.0,23.0,138.0,13.0,0.0,0.0,-0.96,0.13,-0.0,-6.0,-15.0,-18.0,nga
154.0,12.0,143.0,24.0,135.0,15.0,0.0,0.0,-0.97,0.11,0.02,-1.0,-18.0,-14.0,nga
152.0,12.0,143.0,25.0,135.0,15.0,0.0,0.0,-0.96,0.09,0.03,3.0,-22.0,-9.0,nga
156.0,14.0,144.0,26.0,135.0,16.0,0.0,0.0,-0.96,0.09,0.06,8.0,-22.0,-3.0,nga
154.0,14.0,144.0,24.0,141.0,16.0,0.0,0.0,-0.95,0.09,0.08,12.0,-23.0,3.0,nga
156.0,14.0,144.0,26.0,141.0,18.0,0.0,0.0,-0.94,0.1,0.11,16.0,-19.0,9.0,nga
154.0,14.0,145.0,28.0,141.0,18.0,0.0,0.0,-0.94,0.12,0.13,20.0,-17.0,14.0,nga
154.0,14.0,145.0,29.0,141.0,16.0,0.0,0.0,-0.92,0.14,0.14,21.0,-10.0,18.0,nga
156.0,22.0,145.0,30.0,144.0,18.0,0.0,0.0,-0.93,0.17,0.15,21.0,-2.0,20.0,nga
156.0,24.0,145.0,30.0,147.0,16.0,0.0,0.0,-0.92,0.19,0.14,17.0,8.0,20.0,nga
160.0,22.0,144.0,32.0,147.0,18.0,0.0,0.0,-0.92,0.21,0.14,14.0,16.0,19.0,nga
160.0,22.0,144.0,32.0,147.0,16.0,2.0,0.0,-0.92,0.23,0.12,9.0,22.0,15.0,nga
160.0,24.0,144.0,32.0,147.0,16.0,4.0,0.0,-0.92,0.24,0.11,3.0,27.0,11.0,nga
158.0,24.0,144.0,31.0,147.0,15.0,2.0,0.0,-0.92,0.25,0.08,-1.0,28.0,5.0,nga
156.0,24.0,143.0,32.0,147.0,15.0,31.0,0.0,-0.92,0.25,0.05,-5.0,30.0,0.0,nga
160.0,20.0,143.0,31.0,141.0,16.0,33.0,0.0,-0.93,0.25,0.03,-9.0,28.0,-7.0,nga
158.0,22.0,143.0,29.0,141.0,15.0,33.0,0.0,-0.94,0.24,0.01,-13.0,27.0,-13.0,nga
160.0,20.0,144.0,28.0,138.0,15.0,35.0,0.0,-0.94,0.22,-0.01,-16.0,21.0,-19.0,nga
160.0,22.0,144.0,28.0,141.0,16.0,33.0,0.0,-0.95,0.2,-0.02,-17.0,15.0,-22.0,nga
160.0,22.0,144.0,27.0,144.0,16.0,38.0,0.0,-0.96,0.19,-0.03,-15.0,6.0,-24.0,nga
160.0,26.0,145.0,27.0,141.0,18.0,38.0,0.0,-0.96,0.16,-0.03,-13.0,-2.0,-24.0,nga
158.0,24.0,145.0,27.0,144.0,18.0,33.0,0.0,-0.97,0.14,-0.02,-11.0,-10.0,-23.0,nga
162.0,24.0,144.0,28.0,144.0,19.0,35.0,0.0,-0.97,0.12,-0.01,-6.0,-16.0,-20.0,nga
158.0,24.0,144.0,29.0,144.0,19.0,40.0,0.0,-0.96,0.11,0.01,-1.0,-22.0,-16.0,nga
160.0,24.0,142.0,30.0,141.0,19.0,14.0,0.0,-0.96,0.09,0.04,3.0,-26.0,-12.0,nga
154.0,26.0,142.0,31.0,144.0,19.0,11.0,0.0,-0.96,0.08,0.07,7.0,-26.0,-6.0,nga
154.0,26.0,141.0,34.0,144.0,21.0,14.0,0.0,-0.95,0.08,0.09,11.0,-27.0,0.0,nga
152.0,36.0,140.0,35.0,144.0,21.0,7.0,0.0,-0.95,0.09,0.12,17.0,-24.0,6.0,nga
150.0,38.0,140.0,36.0,144.0,21.0,7.0,0.0,-0.94,0.1,0.14,18.0,-20.0,12.0,nga
152.0,36.0,140.0,37.0,138.0,21.0,7.0,0.0,-0.94,0.12,0.16,21.0,-11.0,16.0,nga
150.0,34.0,140.0,37.0,141.0,19.0,4.0,0.0,-0.94,0.14,0.17,19.0,-2.0,19.0,nga
152.0,34.0,140.0,38.0,141.0,18.0,2.0,0.0,-0.93,0.16,0.17,17.0,8.0,21.0,nga
152.0,36.0,140.0,38.0,141.0,19.0,2.0,0.0,-0.93,0.18,0.17,13.0,16.0,19.0,nga
154.0,34.0,139.0,38.0,141.0,18.0,0.0,0.0,-0.94,0.21,0.15,8.0,23.0,16.0,nga
154.0,34.0,143.0,38.0,141.0,19.0,2.0,0.0,-0.94,0.22,0.13,3.0,27.0,12.0,nga
154.0,36.0,143.0,38.0,141.0,19.0,7.0,0.0,-0.94,0.23,0.11,-3.0,30.0,7.0,nga
156.0,36.0,144.0,37.0,141.0,18.0,0.0,0.0,-0.94,0.24,0.08,-7.0,32.0,2.0,nga
156.0,28.0,144.0,36.0,141.0,18.0,2.0,0.0,-0.94,0.24,0.05,-11.0,31.0,-2.0,nga
158.0,26.0,144.0,35.0,144.0,18.0,0.0,0.0,-0.95,0.24,0.03,-14.0,30.0,-7.0,nga
156.0,26.0,144.0,35.0,147.0,18.0,0.0,0.0,-0.95,0.22,0.0,-15.0,25.0,-10.0,nga
152.0,26.0,144.0,34.0,147.0,18.0,0.0,0.0,-0.95,0.22,-0.02,-13.0,21.0,-11.0,nga
150.0,26.0,143.0,33.0,144.0,18.0,0.0,0.0,-0.95,0.2,-0.03,-12.0,16.0,-11.0,nga
146.0,26.0,143.0,32.0,144.0,16.0,0.0,0.0,-0.95,0.2,-0.04,-8.0,12.0,-10.0,nga
148.0,28.0,143.0,32.0,144.0,18.0,0.0,0.0,-0.96,0.19,-0.04,-4.0,7.0,-8.0,nga
146.0,28.0,142.0,32.0,144.0,16.0,0.0,0.0,-0.97,0.18,-0.05,-1.0,4.0,-5.0,nga
148.0,26.0,142.0,32.0,144.0,16.0,0.0,0.0,-0.97,0.18,-0.05,5.0,-2.0,0.0,nga
146.0,26.0,141.0,30.0,144.0,18.0,0.0,0.0,-0.97,0.18,-0.05,9.0,-5.0,4.0,nga
148.0,24.0,142.0,30.0,147.0,18.0,0.0,0.0,-0.97,0.19,-0.04,14.0,-10.0,8.0,nga
148.0,20.0,141.0,30.0,141.0,19.0,0.0,0.0,-0.96,0.2,-0.03,17.0,-17.0,12.0,nga
146.0,20.0,141.0,30.0,141.0,18.0,0.0,0.0,-0.96,0.22,-0.02,20.0,-21.0,14.0,nga
152.0,20.0,140.0,30.0,138.0,18.0,0.0,0.0,-0.95,0.24,0.01,19.0,-26.0,13.0,nga
150.0,20.0,142.0,30.0,138.0,16.0,0.0,0.0,-0.96,0.25,0.03,18.0,-30.0,10.0,nga
152.0,20.0,142.0,31.0,141.0,18.0,0.0,0.0,-0.95,0.26,0.05,13.0,-30.0,6.0,nga
156.0,16.0,142.0,31.0,141.0,16.0,2.0,0.0,-0.94,0.26,0.08,10.0,-31.0,0.0,nga
156.0,16.0,142.0,30.0,144.0,16.0,0.0,0.0,-0.93,0.26,0.1,2.0,-28.0,-5.0,nga
158.0,16.0,142.0,30.0,141.0,16.0,0.0,0.0,-0.92,0.26,0.13,-4.0,-27.0,-11.0,nga
156.0,16.0,142.0,30.0,138.0,16.0,0.0,0.0,-0.92,0.24,0.16,-11.0,-23.0,-17.0,nga
158.0,18.0,142.0,30.0,135.0,18.0,0.0,0.0,-0.91,0.22,0.18,-18.0,-17.0,-23.0,nga
156.0,22.0,139.0,30.0,135.0,18.0,4.0,0.0,-0.92,0.19,0.21,-23.0,-10.0,-27.0,nga
158.0,22.0,139.0,30.0,138.0,19.0,4.0,0.0,-0.91,0.16,0.21,-27.0,-2.0,-29.0,nga
160.0,22.0,140.0,30.0,135.0,21.0,2.0,0.0,-0.92,0.12,0.21,-27.0,6.0,-27.0,nga
160.0,22.0,140.0,30.0,135.0,22.0,4.0,0.0,-0.93,0.09,0.2,-26.0,15.0,-22.0,nga
162.0,28.0,141.0,30.0,135.0,22.0,4.0,0.0,-0.93,0.07,0.19,-21.0,20.0,-15.0,nga
156.0,32.0,141.0,29.0,135.0,24.0,0.0,0.0,-0.94,0.05,0.17,-18.0,25.0,-7.0,nga
158.0,34.0,140.0,29.0,135.0,24.0,2.0,0.0,-0.95,0.04,0.15,-8.0,25.0,1.0,nga
154.0,44.0,140.0,29.0,138.0,24.0,0.0,0.0,-0.96,0.04,0.12,-4.0,26.0,8.0,nga
156.0,46.0,140.0,29.0,144.0,19.0,0.0,0.0,-0.96,0.05,0.1,6.0,24.0,15.0,nga
156.0,44.0,140.0,29.0,144.0,18.0,0.0,0.0,-0.97,0.06,0.08,12.0,21.0,21.0,nga
154.0,42.0,142.0,29.0,147.0,18.0,0.0,0.0,-0.96,0.09,0.06,18.0,17.0,25.0,nga
156.0,42.0,143.0,29.0,150.0,16.0,4.0,0.0,-0.98,0.12,0.05,23.0,10.0,27.0,nga
152.0,42.0,142.0,28.0,153.0,15.0,2.0,0.0,-0.96,0.15,0.03,25.0,4.0,28.0,nga
154.0,40.0,142.0,28.0,153.0,13.0,4.0,0.0,-0.97,0.17,0.04,25.0,-5.0,26.0,nga
158.0,38.0,142.0,28.0,150.0,13.0,2.0,0.0,-0.96,0.2,0.04,22.0,-11.0,21.0,nga
158.0,36.0,141.0,29.0,141.0,12.0,7.0,0.0,-0.96,0.22,0.06,19.0,-19.0,16.0,nga
158.0,36.0,142.0,29.0,138.0,12.0,9.0,0.0,-0.96,0.23,0.08,13.0,-19.0,10.0,nga
142.0,30.0,142.0,30.0,138.0,12.0,7.0,0.0,-0.95,0.24,0.1,9.0,-23.0,4.0,nga
144.0,26.0,141.0,31.0,135.0,16.0,14.0,0.0,-0.95,0.25,0.13,1.0,-22.0,-2.0,nga
140.0,28.0,141.0,30.0,135.0,16.0,9.0,0.0,-0.94,0.24,0.15,-7.0,-21.0,-8.0,nga
140.0,28.0,141.0,31.0,132.0,18.0,9.0,0.0,-0.94,0.23,0.18,-14.0,-17.0,-14.0,nga
140.0,32.0,140.0,32.0,132.0,19.0,0.0,0.0,-0.92,0.21,0.19,-22.0,-13.0,-18.0,nga
140.0,32.0,141.0,32.0,132.0,19.0,0.0,0.0,-0.93,0.19,0.21,-27.0,-6.0,-20.0,nga
140.0,34.0,140.0,33.0,129.0,21.0,0.0,0.0,-0.93,0.16,0.21,-29.0,3.0,-20.0,nga
130.0,32.0,140.0,32.0,132.0,19.0,2.0,0.0,-0.93,0.14,0.21,-30.0,10.0,-19.0,nga
134.0,32.0,140.0,32.0,141.0,21.0,0.0,0.0,-0.93,0.12,0.2,-28.0,17.0,-16.0,nga
132.0,32.0,140.0,32.0,138.0,21.0,0.0,0.0,-0.94,0.1,0.18,-26.0,22.0,-11.0,nga
148.0,32.0,140.0,32.0,138.0,21.0,0.0,0.0,-0.94,0.09,0.16,-21.0,28.0,-4.0,nga
148.0,30.0,141.0,32.0,138.0,21.0,0.0,0.0,-0.94,0.08,0.13,-16.0,30.0,3.0,nga
150.0,30.0,141.0,32.0,141.0,21.0,0.0,0.0,-0.95,0.08,0.1,-8.0,30.0,9.0,nga
152.0,30.0,141.0,31.0,138.0,21.0,0.0,0.0,-0.96,0.08,0.08,0.0,26.0,16.0,nga
148.0,30.0,141.0,30.0,138.0,19.0,0.0,0.0,-0.97,0.1,0.07,7.0,23.0,20.0,nga
152.0,30.0,141.0,30.0,141.0,18.0,0.0,0.0,-0.98,0.12,0.05,15.0,13.0,24.0,nga
150.0,28.0,141.0,29.0,135.0,18.0,0.0,0.0,-0.98,0.15,0.04,19.0,7.0,26.0,nga
152.0,26.0,142.0,29.0,138.0,18.0,0.0,0.0,-0.97,0.17,0.03,25.0,-3.0,26.0,nga
150.0,26.0,142.0,29.0,135.0,18.0,0.0,0.0,-0.97,0.2,0.04,24.0,-7.0,24.0,nga
148.0,20.0,142.0,29.0,138.0,18.0,7.0,0.0,-0.96,0.22,0.04,24.0,-16.0,20.0,nga
150.0,18.0,142.0,29.0,138.0,18.0,2.0,0.0,-0.96,0.24,0.06,21.0,-21.0,14.0,nga
148.0,22.0,141.0,28.0,135.0,16.0,0.0,0.0,-0.96,0.25,0.08,18.0,-25.0,8.0,nga
150.0,20.0,141.0,28.0,135.0,18.0,0.0,0.0,-0.95,0.25,0.1,13.0,-27.0,1.0,nga
148.0,20.0,142.0,28.0,138.0,18.0,0.0,0.0,-0.94,0.26,0.12,7.0,-24.0,-5.0,nga
150.0,18.0,142.0,29.0,132.0,18.0,0.0,0.0,-0.93,0.26,0.13,1.0,-24.0,-11.0,nga
150.0,18.0,142.0,29.0,135.0,18.0,0.0,0.0,-0.93,0.24,0.16,-6.0,-17.0,-15.0,nga
152.0,18.0,142.0,29.0,141.0,18.0,11.0,0.0,-0.93,0.23,0.17,-15.0,-15.0,-21.0,nga
154.0,20.0,141.0,27.0,135.0,19.0,11.0,0.0,-0.93,0.2,0.19,-22.0,-9.0,-23.0,nga
152.0,22.0,140.0,27.0,138.0,18.0,14.0,0.0,-0.93,0.18,0.2,-25.0,-8.0,-25.0,nga
154.0,28.0,141.0,27.0,138.0,19.0,9.0,0.0,-0.93,0.16,0.21,-28.0,-1.0,-25.0,nga
150.0,28.0,141.0,27.0,138.0,19.0,14.0,0.0,-0.93,0.13,0.21,-27.0,5.0,-21.0,nga
152.0,28.0,142.0,28.0,144.0,21.0,19.0,0.0,-0.93,0.11,0.2,-27.0,11.0,-18.0,nga
150.0,26.0,142.0,28.0,141.0,21.0,19.0,0.0,-0.94,0.09,0.19,-24.0,16.0,-12.0,nga
148.0,28.0,141.0,27.0,144.0,21.0,14.0,0.0,-0.94,0.08,0.17,-23.0,21.0,-7.0,nga
148.0,30.0,141.0,28.0,144.0,21.0,4.0,0.0,-0.95,0.07,0.16,-19.0,24.0,-2.0,nga
146.0,28.0,141.0,27.0,147.0,22.0,7.0,0.0,-0.95,0.06,0.13,-17.0,27.0,4.0,nga
132.0,28.0,141.0,27.0,147.0,22.0,0.0,0.0,-0.95,0.07,0.11,-9.0,29.0,12.0,nga
130.0,28.0,141.0,29.0,147.0,21.0,0.0,0.0,-0.95,0.07,0.08,-4.0,27.0,16.0,nga
132.0,28.0,142.0,29.0,147.0,21.0,0.0,0.0,-0.96,0.1,0.06,2.0,27.0,21.0,nga
132.0,30.0,142.0,28.0,147.0,19.0,0.0,0.0,-0.96,0.12,0.04,8.0,24.0,24.0,nga
132.0,32.0,142.0,28.0,147.0,19.0,0.0,0.0,-0.96,0.15,0.02,11.0,17.0,25.0,nga
134.0,30.0,141.0,27.0,144.0,19.0,0.0,0.0,-0.97,0.17,0.01,16.0,11.0,25.0,nga
134.0,26.0,141.0,27.0,147.0,18.0,0.0,0.0,-0.95,0.19,-0.0,15.0,3.0,24.0,nga
136.0,24.0,141.0,27.0,144.0,18.0,2.0,0.0,-0.95,0.21,0.0,18.0,-4.0,21.0,nga
134.0,26.0,139.0,27.0,147.0,16.0,7.0,0.0,-0.94,0.23,-0.0,18.0,-11.0,19.0,nga
136.0,26.0,140.0,27.0,144.0,16.0,9.0,0.0,-0.95,0.25,0.02,19.0,-19.0,14.0,nga
152.0,26.0,140.0,27.0,144.0,16.0,9.0,0.0,-0.94,0.26,0.03,15.0,-24.0,9.0,nga
150.0,24.0,140.0,26.0,144.0,15.0,9.0,0.0,-0.93,0.27,0.05,13.0,-29.0,5.0,nga
154.0,26.0,140.0,26.0,141.0,15.0,4.0,0.0,-0.93,0.27,0.07,5.0,-27.0,0.0,nga
154.0,22.0,140.0,27.0,141.0,16.0,2.0,0.0,-0.92,0.27,0.09,0.0,-29.0,-6.0,nga
156.0,20.0,140.0,27.0,141.0,15.0,2.0,0.0,-0.92,0.25,0.12,-8.0,-23.0,-10.0,nga
152.0,20.0,140.0,27.0,144.0,15.0,0.0,0.0,-0.91,0.24,0.14,-15.0,-25.0,-15.0,nga
148.0,26.0,140.0,27.0,144.0,15.0,0.0,0.0,-0.93,0.21,0.17,-20.0,-16.0,-19.0,nga
150.0,24.0,140.0,29.0,144.0,16.0,0.0,0.0,-0.92,0.2,0.18,-27.0,-14.0,-21.0,nga
170.0,22.0,142.0,29.0,141.0,16.0,0.0,0.0,-0.93,0.17,0.21,-30.0,-7.0,-23.0,nga
170.0,22.0,141.0,30.0,141.0,21.0,0.0,0.0,-0.91,0.14,0.21,-34.0,0.0,-22.0,nga
168.0,18.0,145.0,30.0,141.0,22.0,0.0,0.0,-0.93,0.12,0.22,-33.0,8.0,-20.0,nga
168.0,18.0,145.0,32.0,138.0,24.0,0.0,0.0,-0.93,0.09,0.21,-33.0,17.0,-16.0,nga
166.0,16.0,145.0,32.0,138.0,24.0,2.0,0.0,-0.93,0.08,0.2,-28.0,19.0,-10.0,nga
166.0,18.0,145.0,32.0,141.0,24.0,2.0,0.0,-0.94,0.07,0.18,-26.0,25.0,-4.0,nga
166.0,16.0,145.0,32.0,138.0,25.0,9.0,0.0,-0.94,0.07,0.16,-19.0,24.0,1.0,nga
166.0,18.0,145.0,32.0,138.0,24.0,9.0,0.0,-0.95,0.07,0.14,-14.0,30.0,7.0,nga
170.0,18.0,145.0,32.0,138.0,24.0,9.0,0.0,-0.95,0.07,0.11,-6.0,25.0,11.0,nga
166.0,20.0,144.0,31.0,135.0,24.0,9.0,0.0,-0.96,0.08,0.09,0.0,25.0,17.0,nga
146.0,20.0,144.0,30.0,135.0,24.0,19.0,0.0,-0.97,0.1,0.08,9.0,17.0,20.0,nga
148.0,30.0,144.0,30.0,132.0,21.0,14.0,0.0,-0.97,0.12,0.06,14.0,15.0,23.0,nga
144.0,38.0,140.0,30.0,132.0,19.0,14.0,0.0,-0.96,0.15,0.05,19.0,6.0,23.0,nga
146.0,40.0,140.0,29.0,129.0,19.0,9.0,0.0,-0.97,0.16,0.05,22.0,1.0,22.0,nga
144.0,40.0,140.0,29.0,129.0,19.0,9.0,0.0,-0.96,0.18,0.04,25.0,-4.0,20.0,nga
142.0,50.0,139.0,28.0,129.0,18.0,11.0,0.0,-0.96,0.2,0.05,27.0,-7.0,16.0,nga
140.0,46.0,139.0,27.0,129.0,18.0,9.0,0.0,-0.96,0.22,0.05,29.0,-9.0,12.0,nga
142.0,46.0,139.0,27.0,132.0,18.0,9.0,0.0,-0.96,0.22,0.06,30.0,-11.0,9.0,nga
142.0,46.0,139.0,27.0,132.0,18.0,14.0,0.0,-0.95,0.24,0.06,29.0,-9.0,6.0,nga
142.0,46.0,139.0,27.0,132.0,18.0,16.0,0.0,-0.95,0.24,0.06,31.0,-10.0,2.0,nga
144.0,46.0,138.0,27.0,132.0,18.0,11.0,0.0,-0.94,0.25,0.06,27.0,-4.0,-1.0,nga
142.0,36.0,138.0,27.0,135.0,16.0,9.0,0.0,-0.93,0.26,0.06,25.0,-5.0,-5.0,nga
144.0,36.0,139.0,27.0,135.0,16.0,11.0,0.0,-0.94,0.25,0.06,21.0,2.0,-6.0,nga
144.0,32.0,138.0,27.0,138.0,15.0,14.0,0.0,-0.93,0.26,0.05,16.0,4.0,-8.0,nga
136.0,34.0,138.0,27.0,141.0,15.0,14.0,0.0,-0.94,0.25,0.04,7.0,9.0,-7.0,nga
140.0,20.0,138.0,27.0,138.0,16.0,16.0,0.0,-0.94,0.25,0.03,0.0,9.0,-7.0,nga
138.0,26.0,140.0,27.0,138.0,16.0,19.0,0.0,-0.94,0.24,0.02,-11.0,11.0,-7.0,nga
138.0,24.0,140.0,27.0,141.0,15.0,14.0,0.0,-0.94,0.23,0.02,-16.0,10.0,-7.0,nga
140.0,26.0,141.0,27.0,144.0,15.0,16.0,0.0,-0.94,0.22,0.02,-25.0,9.0,-9.0,nga
132.0,24.0,142.0,27.0,144.0,15.0,11.0,0.0,-0.94,0.22,0.02,-31.0,9.0,-10.0,nga
130.0,26.0,141.0,27.0,141.0,16.0,11.0,0.0,-0.95,0.2,0.02,-38.0,5.0,-13.0,nga
130.0,22.0,142.0,28.0,141.0,16.0,11.0,0.0,-0.95,0.18,0.02,-37.0,0.0,-17.0,nga
132.0,20.0,141.0,28.0,141.0,16.0,14.0,0.0,-0.95,0.16,0.04,-36.0,-7.0,-18.0,nga
132.0,22.0,141.0,28.0,138.0,18.0,19.0,0.0,-0.94,0.15,0.05,-29.0,-14.0,-18.0,nga
140.0,20.0,141.0,29.0,135.0,19.0,19.0,0.0,-0.95,0.13,0.07,-21.0,-17.0,-17.0,nga
138.0,22.0,141.0,29.0,132.0,19.0,14.0,0.0,-0.93,0.13,0.09,-14.0,-19.0,-14.0,nga
140.0,22.0,139.0,30.0,132.0,18.0,16.0,0.0,-0.94,0.12,0.12,-2.0,-17.0,-10.0,nga
142.0,22.0,139.0,30.0,126.0,19.0,23.0,0.0,-0.94,0.12,0.13,0.0,-14.0,-6.0,nga
138.0,24.0,139.0,31.0,126.0,21.0,19.0,0.0,-0.94,0.13,0.15,7.0,-8.0,-1.0,nga
146.0,24.0,138.0,32.0,129.0,19.0,21.0,0.0,-0.94,0.13,0.15,7.0,-2.0,3.0,nga
142.0,22.0,138.0,32.0,129.0,21.0,23.0,0.0,-0.93,0.14,0.15,7.0,8.0,7.0,nga
142.0,26.0,138.0,32.0,126.0,21.0,23.0,0.0,-0.95,0.15,0.15,2.0,15.0,11.0,nga
140.0,26.0,138.0,32.0,123.0,19.0,19.0,0.0,-0.94,0.16,0.14,-4.0,20.0,11.0,nga
140.0,26.0,138.0,32.0,129.0,18.0,16.0,0.0,-0.95,0.17,0.13,-8.0,23.0,9.0,nga
140.0,28.0,138.0,32.0,132.0,18.0,16.0,0.0,-0.95,0.18,0.11,-13.0,22.0,5.0,nga
140.0,28.0,138.0,33.0,135.0,16.0,16.0,0.0,-0.97,0.17,0.1,-15.0,20.0,0.0,nga
140.0,26.0,139.0,33.0,123.0,16.0,14.0,0.0,-0.96,0.17,0.09,-18.0,13.0,-6.0,nga
138.0,30.0,138.0,33.0,123.0,18.0,9.0,0.0,-0.96,0.17,0.09,-14.0,3.0,-9.0,nga
140.0,28.0,138.0,33.0,123.0,16.0,21.0,0.0,-0.96,0.16,0.09,-12.0,-2.0,-10.0,nga
142.0,26.0,138.0,34.0,120.0,18.0,19.0,0.0,-0.95,0.16,0.1,-5.0,-10.0,-10.0,nga
144.0,28.0,138.0,34.0,120.0,18.0,16.0,0.0,-0.95,0.14,0.12,2.0,-16.0,-8.0,nga
144.0,26.0,138.0,35.0,120.0,18.0,19.0,0.0,-0.94,0.16,0.13,9.0,-18.0,-4.0,nga
142.0,28.0,138.0,35.0,123.0,18.0,16.0,0.0,-0.94,0.16,0.15,15.0,-17.0,0.0,nga
144.0,24.0,138.0,36.0,120.0,18.0,19.0,0.0,-0.93,0.16,0.16,15.0,-8.0,3.0,nga
138.0,26.0,137.0,35.0,117.0,18.0,16.0,0.0,-0.94,0.17,0.17,15.0,-2.0,6.0,nga
138.0,26.0,137.0,35.0,114.0,19.0,21.0,0.0,-0.93,0.19,0.16,11.0,7.0,10.0,nga
138.0,28.0,137.0,35.0,135.0,19.0,14.0,0.0,-0.93,0.2,0.16,8.0,13.0,12.0,nga
138.0,26.0,137.0,35.0,135.0,18.0,16.0,0.0,-0.93,0.21,0.14,0.0,22.0,11.0,nga
136.0,28.0,137.0,36.0,135.0,19.0,7.0,0.0,-0.93,0.22,0.12,-6.0,21.0,7.0,nga
134.0,28.0,137.0,36.0,135.0,18.0,4.0,0.0,-0.94,0.22,0.11,-12.0,22.0,3.0,nga
136.0,26.0,137.0,37.0,138.0,19.0,7.0,0.0,-0.94,0.23,0.09,-17.0,21.0,-1.0,nga
136.0,32.0,137.0,37.0,141.0,19.0,2.0,0.0,-0.95,0.22,0.08,-19.0,18.0,-6.0,nga
138.0,32.0,138.0,38.0,141.0,19.0,4.0,0.0,-0.94,0.21,0.07,-19.0,13.0,-9.0,nga
138.0,32.0,137.0,40.0,141.0,21.0,0.0,0.0,-0.95,0.2,0.07,-16.0,3.0,-11.0,nga
140.0,32.0,137.0,40.0,141.0,21.0,2.0,0.0,-0.95,0.19,0.07,-10.0,-6.0,-12.0,nga
144.0,30.0,137.0,40.0,144.0,21.0,0.0,0.0,-0.95,0.18,0.09,-5.0,-11.0,-12.0,nga
142.0,30.0,137.0,42.0,135.0,22.0,0.0,0.0,-0.95,0.17,0.1,0.0,-14.0,-10.0,nga
144.0,30.0,137.0,42.0,132.0,24.0,0.0,0.0,-0.95,0.17,0.12,7.0,-12.0,-7.0,nga
142.0,30.0,136.0,42.0,132.0,22.0,0.0,0.0,-0.95,0.17,0.13,12.0,-10.0,-2.0,nga
142.0,30.0,137.0,41.0,135.0,22.0,0.0,0.0,-0.95,0.17,0.14,16.0,-5.0,2.0,nga
136.0,30.0,137.0,40.0,135.0,21.0,0.0,0.0,-0.95,0.18,0.14,17.0,-1.0,6.0,nga
136.0,30.0,137.0,40.0,129.0,21.0,0.0,0.0,-0.95,0.19,0.14,15.0,3.0,9.0,nga
136.0,30.0,136.0,39.0,132.0,21.0,0.0,0.0,-0.95,0.2,0.13,9.0,8.0,9.0,nga
134.0,30.0,136.0,39.0,132.0,22.0,0.0,0.0,-0.94,0.21,0.12,3.0,13.0,9.0,nga
134.0,30.0,137.0,39.0,132.0,21.0,0.0,0.0,-0.95,0.22,0.12,-5.0,18.0,7.0,nga
132.0,30.0,137.0,39.0,132.0,21.0,0.0,0.0,-0.94,0.22,0.1,-9.0,18.0,5.0,nga
132.0,30.0,137.0,39.0,135.0,21.0,0.0,0.0,-0.95,0.22,0.1,-13.0,16.0,0.0,nga
132.0,30.0,137.0,39.0,138.0,21.0,0.0,0.0,-0.94,0.22,0.08,-15.0,9.0,-4.0,nga
132.0,30.0,137.0,39.0,138.0,21.0,0.0,0.0,-0.95,0.21,0.09,-14.0,5.0,-7.0,nga
136.0,30.0,136.0,40.0,138.0,21.0,0.0,0.0,-0.94,0.21,0.08,-14.0,-2.0,-9.0,nga
138.0,30.0,136.0,39.0,138.0,21.0,16.0,0.0,-0.94,0.2,0.09,-12.0,-8.0,-9.0,nga
140.0,28.0,136.0,40.0,132.0,22.0,11.0,0.0,-0.93,0.2,0.1,-8.0,-10.0,-9.0,nga
136.0,30.0,136.0,39.0,132.0,22.0,11.0,0.0,-0.94,0.19,0.12,-4.0,-12.0,-8.0,nga
136.0,30.0,137.0,39.0,132.0,22.0,16.0,0.0,-0.93,0.18,0.13,0.0,-11.0,-7.0,nga
138.0,32.0,137.0,40.0,132.0,22.0,14.0,0.0,-0.93,0.18,0.14,5.0,-13.0,-6.0,nga
136.0,32.0,137.0,40.0,132.0,22.0,19.0,0.0,-0.94,0.17,0.15,7.0,-14.0,-5.0,nga
138.0,32.0,136.0,39.0,132.0,21.0,23.0,0.0,-0.93,0.18,0.16,9.0,-12.0,-5.0,nga
138.0,32.0,136.0,38.0,129.0,21.0,23.0,0.0,-0.93,0.17,0.16,7.0,-9.0,-4.0,nga
138.0,32.0,136.0,38.0,129.0,22.0,26.0,0.0,-0.93,0.17,0.16,5.0,-4.0,-6.0,nga
138.0,32.0,136.0,39.0,129.0,24.0,23.0,0.0,-0.93,0.16,0.16,-2.0,3.0,-5.0,nga
138.0,30.0,137.0,39.0,126.0,24.0,2.0,0.0,-0.94,0.16,0.17,-5.0,13.0,-4.0,nga
140.0,30.0,137.0,38.0,129.0,24.0,9.0,0.0,-0.94,0.15,0.16,-8.0,19.0,-2.0,nga
144.0,28.0,137.0,39.0,135.0,24.0,9.0,0.0,-0.95,0.15,0.14,-7.0,20.0,2.0,nga
148.0,30.0,137.0,39.0,135.0,24.0,9.0,0.0,-0.95,0.15,0.13,-2.0,15.0,6.0,nga
146.0,30.0,137.0,38.0,135.0,24.0,11.0,0.0,-0.95,0.16,0.11,1.0,10.0,10.0,nga
146.0,30.0,137.0,38.0,135.0,22.0,11.0,0.0,-0.95,0.17,0.1,5.0,7.0,11.0,nga
144.0,30.0,137.0,38.0,132.0,24.0,9.0,0.0,-0.94,0.18,0.09,7.0,2.0,14.0,nga
144.0,32.0,136.0,38.0,135.0,24.0,4.0,0.0,-0.95,0.2,0.11,17.0,-3.0,12.0,nga
144.0,32.0,136.0,38.0,135.0,24.0,2.0,0.0,-0.94,0.21,0.1,20.0,-7.0,12.0,nga
142.0,34.0,137.0,38.0,141.0,22.0,4.0,0.0,-0.93,0.24,0.12,29.0,-15.0,10.0,nga
138.0,34.0,137.0,38.0,141.0,22.0,2.0,0.0,-0.93,0.25,0.12,27.0,-21.0,5.0,nga
142.0,34.0,136.0,38.0,147.0,22.0,0.0,0.0,-0.92,0.27,0.13,27.0,-29.0,0.0,nga
142.0,34.0,137.0,38.0,138.0,22.0,0.0,0.0,-0.92,0.26,0.15,17.0,-27.0,-11.0,nga
142.0,32.0,137.0,38.0,135.0,24.0,0.0,0.0,-0.91,0.26,0.17,11.0,-23.0,-16.0,nga
142.0,32.0,137.0,38.0,135.0,24.0,0.0,0.0,-0.92,0.24,0.18,2.0,-12.0,-20.0,nga
146.0,30.0,137.0,38.0,132.0,27.0,0.0,0.0,-0.91,0.23,0.18,-8.0,-2.0,-21.0,nga
144.0,30.0,137.0,38.0,135.0,27.0,0.0,0.0,-0.93,0.2,0.19,-10.0,8.0,-17.0,nga
146.0,30.0,138.0,39.0,132.0,27.0,0.0,0.0,-0.92,0.17,0.17,-18.0,17.0,-10.0,nga
142.0,28.0,137.0,38.0,132.0,27.0,0.0,0.0,-0.94,0.16,0.16,-16.0,17.0,-3.0,nga
144.0,30.0,137.0,38.0,129.0,27.0,0.0,0.0,-0.95,0.13,0.14,-17.0,22.0,4.0,nga
150.0,30.0,137.0,38.0,132.0,27.0,0.0,0.0,-0.95,0.13,0.13,-9.0,21.0,11.0,nga
140.0,32.0,137.0,38.0,129.0,27.0,0.0,0.0,-0.96,0.12,0.11,-5.0,22.0,15.0,nga
146.0,32.0,137.0,37.0,129.0,27.0,0.0,0.0,-0.96,0.14,0.1,6.0,15.0,20.0,nga
144.0,34.0,136.0,37.0,132.0,25.0,0.0,0.0,-0.97,0.15,0.08,12.0,9.0,21.0,nga
144.0,34.0,136.0,37.0,129.0,25.0,0.0,0.0,-0.96,0.18,0.07,17.0,1.0,22.0,nga
142.0,34.0,136.0,37.0,129.0,25.0,0.0,0.0,-0.96,0.19,0.07,24.0,-9.0,18.0,nga
142.0,34.0,136.0,36.0,132.0,24.0,0.0,0.0,-0.95,0.22,0.07,20.0,-14.0,12.0,nga
142.0,34.0,136.0,37.0,135.0,25.0,2.0,0.0,-0.94,0.24,0.08,21.0,-21.0,6.0,nga
140.0,34.0,136.0,38.0,132.0,25.0,0.0,0.0,-0.93,0.25,0.09,12.0,-18.0,-2.0,nga
140.0,32.0,136.0,39.0,132.0,27.0,0.0,0.0,-0.94,0.24,0.11,6.0,-21.0,-8.0,nga
134.0,32.0,136.0,39.0,132.0,28.0,4.0,0.0,-0.93,0.24,0.12,-9.0,-16.0,-15.0,nga
136.0,32.0,137.0,40.0,132.0,27.0,4.0,0.0,-0.93,0.23,0.13,-16.0,-13.0,-18.0,nga
124.0,32.0,137.0,40.0,132.0,28.0,4.0,0.0,-0.92,0.2,0.14,-24.0,-3.0,-16.0,nga
126.0,34.0,138.0,40.0,132.0,28.0,7.0,0.0,-0.93,0.19,0.15,-26.0,4.0,-12.0,nga
126.0,34.0,138.0,39.0,135.0,28.0,4.0,0.0,-0.93,0.17,0.15,-25.0,10.0,-5.0,nga
124.0,36.0,137.0,39.0,132.0,27.0,0.0,0.0,-0.93,0.17,0.14,-27.0,16.0,4.0,nga
132.0,36.0,137.0,39.0,135.0,27.0,0.0,0.0,-0.94,0.16,0.13,-20.0,14.0,10.0,nga
132.0,38.0,137.0,38.0,135.0,25.0,0.0,0.0,-0.94,0.16,0.12,-17.0,15.0,14.0,nga
136.0,36.0,137.0,38.0,132.0,24.0,0.0,0.0,-0.94,0.16,0.11,-8.0,12.0,17.0,nga
136.0,38.0,136.0,36.0,135.0,22.0,0.0,0.0,-0.94,0.17,0.09,-2.0,11.0,19.0,nga
140.0,40.0,136.0,36.0,135.0,21.0,0.0,0.0,-0.95,0.19,0.09,13.0,5.0,21.0,nga
144.0,40.0,136.0,35.0,135.0,22.0,0.0,0.0,-0.94,0.21,0.08,18.0,3.0,21.0,nga
148.0,40.0,136.0,35.0,135.0,21.0,0.0,0.0,-0.93,0.25,0.07,24.0,-7.0,18.0,nga
150.0,36.0,135.0,36.0,132.0,21.0,0.0,0.0,-0.93,0.26,0.07,22.0,-9.0,11.0,nga
148.0,38.0,135.0,36.0,132.0,21.0,0.0,0.0,-0.92,0.28,0.08,21.0,-13.0,5.0,nga
148.0,36.0,135.0,36.0,138.0,21.0,0.0,0.0,-0.93,0.27,0.09,19.0,-14.0,-1.0,nga
142.0,36.0,135.0,36.0,135.0,21.0,0.0,0.0,-0.92,0.28,0.09,14.0,-12.0,-5.0,nga
142.0,34.0,135.0,37.0,135.0,21.0,2.0,0.0,-0.93,0.27,0.11,11.0,-9.0,-7.0,nga
142.0,36.0,134.0,37.0,135.0,22.0,4.0,0.0,-0.93,0.27,0.11,6.0,-6.0,-8.0,nga
138.0,36.0,134.0,38.0,132.0,22.0,7.0,0.0,-0.94,0.27,0.12,4.0,-1.0,-7.0,nga
140.0,34.0,135.0,38.0,129.0,22.0,7.0,0.0,-0.92,0.26,0.11,-2.0,6.0,-5.0,nga
138.0,38.0,134.0,38.0,132.0,19.0,4.0,0.0,-0.93,0.26,0.11,-7.0,11.0,-4.0,nga
138.0,36.0,134.0,39.0,132.0,19.0,9.0,0.0,-0.94,0.24,0.1,-13.0,20.0,-2.0,nga
140.0,38.0,134.0,39.0,132.0,19.0,9.0,0.0,-0.94,0.24,0.09,-15.0,22.0,2.0,nga
140.0,36.0,134.0,40.0,132.0,21.0,9.0,0.0,-0.94,0.24,0.07,-16.0,25.0,5.0,nga
142.0,36.0,133.0,40.0,129.0,21.0,7.0,0.0,-0.93,0.25,0.05,-17.0,27.0,9.0,nga
138.0,38.0,134.0,40.0,129.0,21.0,9.0,0.0,-0.94,0.25,0.04,-17.0,29.0,13.0,nga
138.0,38.0,134.0,40.0,129.0,22.0,9.0,0.0,-0.93,0.27,0.01,-17.0,30.0,15.0,nga
138.0,38.0,135.0,40.0,132.0,21.0,9.0,0.0,-0.93,0.28,0.0,-17.0,32.0,16.0,nga
136.0,36.0,139.0,40.0,132.0,22.0,9.0,0.0,-0.92,0.3,-0.02,-18.0,30.0,16.0,nga
140.0,34.0,138.0,40.0,132.0,24.0,9.0,0.0,-0.93,0.3,-0.03,-17.0,26.0,15.0,nga
136.0,32.0,139.0,40.0,132.0,25.0,9.0,0.0,-0.93,0.31,-0.05,-13.0,21.0,15.0,nga
138.0,28.0,139.0,40.0,132.0,25.0,2.0,0.0,-0.92,0.33,-0.06,-10.0,14.0,11.0,nga
136.0,32.0,138.0,39.0,132.0,25.0,0.0,0.0,-0.9,0.35,-0.06,-9.0,11.0,6.0,nga
138.0,32.0,139.0,39.0,132.0,25.0,0.0,0.0,-0.9,0.35,-0.06,-9.0,7.0,0.0,nga
138.0,32.0,139.0,38.0,132.0,25.0,2.0,0.0,-0.91,0.35,-0.06,-13.0,4.0,-7.0,nga
138.0,32.0,139.0,39.0,117.0,25.0,2.0,0.0,-0.91,0.34,-0.06,-14.0,1.0,-14.0,nga
142.0,32.0,138.0,39.0,117.0,25.0,2.0,0.0,-0.92,0.32,-0.06,-18.0,-3.0,-19.0,nga
140.0,26.0,138.0,39.0,117.0,25.0,4.0,0.0,-0.92,0.31,-0.05,-19.0,-6.0,-25.0,nga
142.0,28.0,135.0,39.0,120.0,25.0,7.0,0.0,-0.93,0.28,-0.04,-20.0,-7.0,-27.0,nga
140.0,30.0,135.0,40.0,123.0,25.0,0.0,0.0,-0.92,0.27,-0.03,-21.0,-10.0,-29.0,nga
142.0,34.0,135.0,40.0,123.0,25.0,2.0,0.0,-0.93,0.24,-0.02,-21.0,-10.0,-29.0,nga
140.0,36.0,135.0,40.0,123.0,25.0,4.0,0.0,-0.93,0.21,-0.01,-20.0,-9.0,-28.0,nga
138.0,34.0,135.0,41.0,123.0,27.0,4.0,0.0,-0.96,0.18,0.01,-17.0,-7.0,-23.0,nga
140.0,34.0,135.0,39.0,129.0,25.0,2.0,0.0,-0.95,0.17,0.01,-15.0,-3.0,-15.0,nga
138.0,36.0,135.0,40.0,126.0,25.0,2.0,0.0,-0.95,0.16,0.02,-9.0,-1.0,-7.0,nga
142.0,34.0,135.0,40.0,138.0,25.0,2.0,0.0,-0.95,0.15,0.02,-6.0,0.0,0.0,nga
140.0,32.0,136.0,40.0,138.0,27.0,0.0,0.0,-0.95,0.16,0.02,0.0,4.0,8.0,nga
142.0,38.0,136.0,42.0,135.0,27.0,0.0,0.0,-0.94,0.17,0.02,3.0,6.0,15.0,nga
142.0,38.0,137.0,42.0,132.0,28.0,0.0,0.0,-0.94,0.19,0.02,6.0,8.0,19.0,nga
144.0,44.0,138.0,43.0,132.0,30.0,0.0,0.0,-0.94,0.2,0.01,6.0,12.0,22.0,nga
148.0,42.0,139.0,44.0,132.0,30.0,0.0,0.0,-0.94,0.23,-0.0,6.0,13.0,24.0,nga
146.0,44.0,139.0,45.0,129.0,31.0,0.0,0.0,-0.94,0.25,-0.01,4.0,15.0,24.0,nga
150.0,44.0,140.0,45.0,129.0,31.0,0.0,0.0,-0.93,0.27,-0.02,1.0,16.0,23.0,nga
146.0,44.0,141.0,48.0,126.0,33.0,0.0,0.0,-0.92,0.29,-0.03,2.0,13.0,19.0,nga
148.0,46.0,141.0,48.0,132.0,33.0,0.0,0.0,-0.92,0.31,-0.04,0.0,11.0,15.0,nga
148.0,48.0,141.0,49.0,132.0,33.0,0.0,0.0,-0.91,0.32,-0.05,-1.0,9.0,10.0,nga
146.0,50.0,141.0,49.0,135.0,33.0,0.0,0.0,-0.92,0.33,-0.05,-5.0,8.0,5.0,nga
146.0,48.0,142.0,49.0,138.0,33.0,4.0,0.0,-0.91,0.34,-0.06,-5.0,5.0,1.0,nga
142.0,48.0,141.0,48.0,138.0,33.0,2.0,0.0,-0.92,0.33,-0.06,-8.0,4.0,-3.0,nga
142.0,40.0,141.0,48.0,135.0,33.0,2.0,0.0,-0.91,0.34,-0.06,-7.0,1.0,-4.0,nga
140.0,42.0,141.0,47.0,135.0,33.0,0.0,0.0,-0.92,0.33,-0.05,-7.0,0.0,-5.0,nga
138.0,48.0,141.0,47.0,135.0,33.0,0.0,0.0,-0.92,0.33,-0.06,-7.0,-3.0,-8.0,nga
138.0,48.0,140.0,48.0,135.0,33.0,0.0,0.0,-0.92,0.32,-0.05,-8.0,-5.0,-12.0,nga
134.0,50.0,140.0,48.0,138.0,33.0,0.0,0.0,-0.93,0.31,-0.04,-12.0,-6.0,-15.0,nga
136.0,46.0,141.0,48.0,126.0,33.0,0.0,0.0,-0.93,0.3,-0.03,-13.0,-8.0,-18.0,nga
134.0,46.0,140.0,48.0,126.0,33.0,0.0,0.0,-0.93,0.28,-0.01,-13.0,-7.0,-18.0,nga
136.0,46.0,140.0,47.0,123.0,33.0,0.0,0.0,-0.93,0.27,-0.0,-13.0,-8.0,-18.0,nga
138.0,58.0,139.0,47.0,123.0,33.0,0.0,0.0,-0.94,0.25,0.01,-13.0,-6.0,-17.0,nga
136.0,56.0,140.0,48.0,120.0,34.0,0.0,0.0,-0.94,0.24,0.02,-11.0,-7.0,-14.0,nga
140.0,54.0,140.0,48.0,120.0,33.0,0.0,0.0,-0.94,0.23,0.03,-9.0,-5.0,-12.0,nga
138.0,54.0,140.0,47.0,123.0,33.0,0.0,0.0,-0.94,0.22,0.04,-8.0,-6.0,-10.0,nga
138.0,46.0,140.0,46.0,123.0,33.0,0.0,0.0,-0.94,0.21,0.05,-5.0,-2.0,-4.0,nga
138.0,42.0,140.0,46.0,120.0,33.0,0.0,0.0,-0.94,0.21,0.05,-4.0,1.0,2.0,nga
140.0,42.0,140.0,46.0,117.0,33.0,0.0,0.0,-0.94,0.22,0.05,1.0,3.0,7.0,nga
138.0,44.0,139.0,48.0,123.0,33.0,0.0,0.0,-0.94,0.23,0.05,2.0,5.0,11.0,nga
144.0,44.0,140.0,48.0,123.0,28.0,0.0,0.0,-0.94,0.24,0.05,2.0,6.0,12.0,nga
146.0,42.0,140.0,48.0,126.0,28.0,0.0,0.0,-0.93,0.25,0.05,3.0,4.0,10.0,nga
140.0,38.0,140.0,48.0,123.0,28.0,0.0,0.0,-0.93,0.26,0.04,3.0,4.0,9.0,nga
142.0,38.0,139.0,48.0,126.0,27.0,0.0,0.0,-0.93,0.27,0.04,2.0,4.0,8.0,nga
138.0,40.0,139.0,46.0,126.0,28.0,0.0,0.0,-0.93,0.28,0.04,0.0,4.0,8.0,nga
140.0,42.0,139.0,46.0,126.0,28.0,0.0,0.0,-0.92,0.29,0.03,0.0,4.0,7.0,nga
140.0,44.0,139.0,46.0,126.0,28.0,0.0,0.0,-0.92,0.29,0.04,-2.0,2.0,3.0,nga
140.0,46.0,139.0,46.0,129.0,28.0,0.0,0.0,-0.92,0.29,0.04,-1.0,1.0,0.0,nga
140.0,48.0,139.0,47.0,129.0,28.0,0.0,0.0,-0.92,0.29,0.04,-3.0,-1.0,-3.0,nga
140.0,48.0,139.0,45.0,132.0,28.0,0.0,0.0,-0.92,0.29,0.04,-2.0,-3.0,-4.0,nga
136.0,48.0,138.0,45.0,129.0,33.0,0.0,0.0,-0.93,0.29,0.04,-3.0,-3.0,-5.0,nga
136.0,48.0,138.0,45.0,132.0,33.0,0.0,0.0,-0.92,0.28,0.05,-2.0,-3.0,-3.0,nga
138.0,38.0,138.0,45.0,135.0,31.0,0.0,0.0,-0.93,0.28,0.05,-2.0,-2.0,-3.0,nga
140.0,38.0,138.0,45.0,132.0,31.0,0.0,0.0,-0.93,0.27,0.06,-1.0,-2.0,-4.0,nga
140.0,38.0,138.0,48.0,132.0,31.0,0.0,0.0,-0.93,0.27,0.06,0.0,-4.0,-5.0,nga
142.0,36.0,139.0,48.0,132.0,31.0,0.0,0.0,-0.94,0.26,0.06,0.0,-3.0,-6.0,nga
140.0,34.0,139.0,47.0,132.0,33.0,0.0,0.0,-0.94,0.26,0.06,0.0,-3.0,-6.0,nga
138.0,32.0,139.0,47.0,129.0,33.0,0.0,0.0,-0.94,0.26,0.07,0.0,-3.0,-6.0,nga
140.0,32.0,139.0,46.0,132.0,33.0,0.0,0.0,-0.94,0.25,0.08,0.0,-4.0,-6.0,nga
140.0,32.0,140.0,46.0,132.0,33.0,0.0,0.0,-0.95,0.25,0.08,0.0,0.0,-5.0,nga
142.0,30.0,139.0,46.0,129.0,33.0,0.0,0.0,-0.95,0.25,0.08,2.0,1.0,-2.0,nga
140.0,30.0,139.0,46.0,129.0,31.0,0.0,0.0,-0.95,0.25,0.08,3.0,4.0,2.0,nga
140.0,38.0,139.0,46.0,126.0,31.0,0.0,0.0,-0.94,0.25,0.07,7.0,3.0,3.0,nga
136.0,42.0,139.0,46.0,129.0,31.0,0.0,0.0,-0.93,0.26,0.08,10.0,3.0,5.0,nga
136.0,42.0,139.0,45.0,129.0,31.0,0.0,0.0,-0.94,0.26,0.07,15.0,0.0,2.0,nga
136.0,44.0,139.0,45.0,129.0,31.0,0.0,0.0,-0.94,0.26,0.07,19.0,0.0,1.0,nga
136.0,46.0,139.0,45.0,132.0,28.0,0.0,0.0,-0.94,0.28,0.07,21.0,-5.0,0.0,nga
136.0,46.0,138.0,45.0,129.0,28.0,0.0,0.0,-0.93,0.29,0.06,21.0,-6.0,1.0,nga
134.0,46.0,138.0,46.0,126.0,27.0,0.0,0.0,-0.93,0.29,0.05,15.0,-3.0,5.0,nga
136.0,44.0,137.0,46.0,126.0,27.0,0.0,0.0,-0.93,0.29,0.05,10.0,-1.0,8.0,nga
132.0,48.0,138.0,46.0,132.0,27.0,0.0,0.0,-0.92,0.29,0.06,2.0,1.0,8.0,nga
136.0,48.0,138.0,46.0,132.0,28.0,0.0,0.0,-0.92,0.29,0.06,-3.0,0.0,3.0,nga
136.0,48.0,138.0,47.0,129.0,28.0,0.0,0.0,-0.93,0.29,0.06,-11.0,1.0,-2.0,nga
138.0,46.0,138.0,46.0,129.0,28.0,0.0,0.0,-0.93,0.28,0.07,-16.0,-2.0,-8.0,nga
140.0,44.0,137.0,47.0,129.0,28.0,0.0,0.0,-0.93,0.27,0.08,-23.0,-2.0,-11.0,nga
140.0,46.0,137.0,48.0,132.0,30.0,0.0,0.0,-0.94,0.27,0.09,-23.0,-5.0,-16.0,nga
142.0,42.0,138.0,49.0,132.0,31.0,0.0,0.0,-0.93,0.24,0.1,-25.0,-4.0,-15.0,nga
142.0,46.0,137.0,51.0,132.0,31.0,0.0,0.0,-0.94,0.22,0.12,-20.0,-9.0,-17.0,nga
144.0,42.0,137.0,51.0,135.0,33.0,0.0,0.0,-0.93,0.2,0.14,-13.0,-13.0,-19.0,nga
144.0,42.0,137.0,52.0,129.0,33.0,0.0,0.0,-0.93,0.19,0.16,0.0,-17.0,-20.0,nga
144.0,40.0,137.0,53.0,126.0,33.0,0.0,0.0,-0.93,0.17,0.17,10.0,-19.0,-18.0,nga
140.0,40.0,137.0,54.0,126.0,33.0,0.0,0.0,-0.93,0.17,0.19,18.0,-21.0,-12.0,nga
138.0,42.0,137.0,55.0,129.0,33.0,0.0,0.0,-0.93,0.17,0.21,24.0,-18.0,-5.0,nga
140.0,42.0,137.0,55.0,129.0,33.0,0.0,0.0,-0.92,0.18,0.22,26.0,-13.0,2.0,nga
134.0,40.0,137.0,55.0,126.0,33.0,0.0,0.0,-0.92,0.18,0.23,25.0,-3.0,8.0,nga
134.0,38.0,137.0,55.0,126.0,34.0,0.0,0.0,-0.91,0.2,0.22,18.0,5.0,15.0,nga
134.0,40.0,138.0,56.0,120.0,37.0,0.0,0.0,-0.91,0.22,0.23,15.0,13.0,16.0,nga
130.0,38.0,138.0,55.0,123.0,36.0,0.0,0.0,-0.91,0.23,0.22,7.0,21.0,16.0,nga
132.0,42.0,138.0,55.0,120.0,36.0,0.0,0.0,-0.91,0.25,0.2,3.0,22.0,12.0,nga
130.0,40.0,139.0,55.0,120.0,37.0,0.0,0.0,-0.93,0.25,0.19,-4.0,21.0,5.0,nga
134.0,40.0,139.0,55.0,120.0,36.0,0.0,0.0,-0.93,0.25,0.18,-9.0,17.0,-2.0,nga
134.0,38.0,138.0,54.0,120.0,37.0,0.0,0.0,-0.93,0.25,0.17,-11.0,10.0,-8.0,nga
134.0,38.0,138.0,54.0,120.0,37.0,0.0,0.0,-0.94,0.24,0.17,-12.0,9.0,-11.0,nga
134.0,38.0,138.0,53.0,120.0,37.0,0.0,0.0,-0.94,0.23,0.16,-12.0,5.0,-12.0,nga
134.0,40.0,139.0,54.0,120.0,37.0,0.0,0.0,-0.93,0.23,0.16,-11.0,2.0,-13.0,nga
138.0,40.0,139.0,54.0,120.0,37.0,0.0,0.0,-0.94,0.21,0.17,-7.0,-2.0,-14.0,nga
138.0,40.0,139.0,54.0,126.0,33.0,0.0,0.0,-0.94,0.2,0.18,-7.0,-6.0,-14.0,nga
138.0,38.0,139.0,53.0,126.0,34.0,0.0,0.0,-0.94,0.19,0.18,-6.0,-8.0,-13.0,nga
136.0,40.0,139.0,53.0,138.0,34.0,0.0,0.0,-0.94,0.18,0.19,-8.0,-5.0,-12.0,nga
138.0,40.0,139.0,53.0,147.0,33.0,0.0,0.0,-0.94,0.17,0.2,-7.0,-3.0,-10.0,nga
140.0,38.0,139.0,52.0,147.0,33.0,0.0,0.0,-0.95,0.16,0.21,-5.0,-5.0,-8.0,nga
138.0,40.0,140.0,52.0,147.0,33.0,0.0,0.0,-0.94,0.15,0.21,-5.0,0.0,-5.0,nga
140.0,40.0,140.0,52.0,147.0,33.0,0.0,0.0,-0.94,0.15,0.21,-3.0,-4.0,-3.0,nga
142.0,40.0,140.0,52.0,144.0,33.0,0.0,0.0,-0.94,0.15,0.22,-2.0,-4.0,-1.0,nga
142.0,40.0,140.0,52.0,138.0,33.0,0.0,0.0,-0.94,0.16,0.22,1.0,-3.0,2.0,nga
144.0,38.0,140.0,51.0,138.0,33.0,0.0,0.0,-0.93,0.16,0.22,1.0,0.0,6.0,nga
140.0,38.0,140.0,49.0,138.0,33.0,0.0,0.0,-0.93,0.17,0.22,1.0,2.0,9.0,nga
144.0,38.0,139.0,49.0,135.0,33.0,0.0,0.0,-0.92,0.18,0.22,2.0,6.0,12.0,nga
142.0,42.0,139.0,49.0,123.0,33.0,0.0,0.0,-0.93,0.19,0.22,2.0,9.0,14.0,nga
140.0,40.0,138.0,49.0,120.0,34.0,0.0,0.0,-0.92,0.21,0.21,1.0,12.0,14.0,nga
138.0,42.0,138.0,49.0,120.0,34.0,0.0,0.0,-0.91,0.22,0.2,-2.0,16.0,14.0,nga
136.0,40.0,138.0,49.0,117.0,33.0,0.0,0.0,-0.92,0.23,0.19,-5.0,17.0,10.0,nga
136.0,28.0,138.0,49.0,114.0,33.0,0.0,0.0,-0.92,0.24,0.18,-8.0,10.0,3.0,nga
134.0,32.0,138.0,49.0,117.0,33.0,0.0,0.0,-0.93,0.24,0.18,-8.0,8.0,-1.0,nga
136.0,32.0,138.0,49.0,123.0,33.0,0.0,0.0,-0.92,0.23,0.18,-9.0,1.0,-6.0,nga
134.0,34.0,138.0,50.0,123.0,33.0,0.0,0.0,-0.93,0.23,0.19,-6.0,-2.0,-8.0,nga
136.0,34.0,137.0,51.0,123.0,33.0,0.0,0.0,-0.92,0.22,0.19,-3.0,-6.0,-9.0,nga
136.0,36.0,137.0,51.0,120.0,33.0,0.0,0.0,-0.93,0.21,0.2,1.0,-10.0,-8.0,nga
138.0,30.0,138.0,51.0,120.0,33.0,0.0,0.0,-0.92,0.21,0.21,5.0,-14.0,-6.0,nga
142.0,28.0,138.0,50.0,117.0,33.0,0.0,0.0,-0.92,0.21,0.22,9.0,-15.0,-2.0,nga
138.0,28.0,138.0,50.0,120.0,33.0,0.0,0.0,-0.92,0.22,0.23,9.0,-11.0,1.0,nga
140.0,28.0,137.0,49.0,120.0,34.0,2.0,0.0,-0.91,0.22,0.24,8.0,-6.0,5.0,nga
138.0,40.0,137.0,49.0,123.0,33.0,0.0,0.0,-0.91,0.23,0.25,4.0,7.0,9.0,nga
140.0,36.0,137.0,51.0,120.0,33.0,0.0,0.0,-0.9,0.24,0.24,2.0,11.0,9.0,nga
138.0,36.0,137.0,51.0,120.0,33.0,2.0,0.0,-0.91,0.24,0.23,0.0,15.0,7.0,nga
132.0,38.0,138.0,50.0,123.0,33.0,4.0,0.0,-0.91,0.25,0.22,-4.0,13.0,2.0,nga
136.0,36.0,139.0,49.0,123.0,33.0,2.0,0.0,-0.92,0.24,0.22,-2.0,9.0,-5.0,nga
134.0,38.0,140.0,49.0,126.0,33.0,7.0,0.0,-0.92,0.24,0.21,-5.0,8.0,-9.0,nga
134.0,38.0,140.0,49.0,123.0,33.0,0.0,0.0,-0.92,0.24,0.21,-2.0,6.0,-12.0,nga
132.0,44.0,140.0,49.0,129.0,31.0,0.0,0.0,-0.93,0.23,0.21,-1.0,5.0,-12.0,nga
134.0,46.0,140.0,49.0,129.0,31.0,0.0,0.0,-0.93,0.22,0.21,6.0,1.0,-13.0,nga
136.0,46.0,141.0,49.0,120.0,31.0,0.0,0.0,-0.93,0.21,0.21,9.0,-2.0,-13.0,nga
128.0,44.0,141.0,49.0,120.0,33.0,2.0,0.0,-0.93,0.21,0.22,13.0,-7.0,-10.0,nga
130.0,44.0,140.0,48.0,120.0,31.0,0.0,0.0,-0.94,0.2,0.22,14.0,-7.0,-7.0,nga
128.0,46.0,139.0,47.0,123.0,30.0,0.0,0.0,-0.93,0.21,0.22,14.0,-5.0,-2.0,nga
132.0,42.0,139.0,47.0,123.0,30.0,0.0,0.0,-0.93,0.21,0.22,14.0,1.0,3.0,nga
132.0,36.0,156.0,75.0,399.0,143.0,0.0,50.0,-0.94,0.22,0.13,0.0,3.0,0.0,nga
128.0,36.0,157.0,72.0,369.0,131.0,0.0,25.0,-0.94,0.22,0.13,0.0,3.0,0.0,nga
132.0,40.0,155.0,68.0,339.0,117.0,0.0,0.0,-0.94,0.22,0.13,1.0,4.0,0.0,nga
130.0,40.0,152.0,64.0,306.0,107.0,0.0,0.0,-0.94,0.22,0.12,1.0,5.0,1.0,nga
132.0,36.0,150.0,61.0,279.0,96.0,0.0,0.0,-0.94,0.22,0.12,3.0,5.0,2.0,nga
134.0,34.0,148.0,57.0,255.0,84.0,0.0,0.0,-0.94,0.22,0.11,4.0,6.0,2.0,nga
134.0,34.0,146.0,49.0,222.0,70.0,0.0,0.0,-0.93,0.23,0.1,5.0,5.0,3.0,nga
136.0,34.0,143.0,46.0,192.0,58.0,0.0,0.0,-0.94,0.24,0.09,4.0,7.0,3.0,nga
134.0,32.0,140.0,41.0,168.0,45.0,0.0,0.0,-0.94,0.24,0.08,4.0,6.0,3.0,nga
134.0,32.0,138.0,38.0,138.0,33.0,0.0,0.0,-0.95,0.25,0.08,4.0,4.0,4.0,nga
136.0,36.0,139.0,38.0,141.0,31.0,0.0,0.0,-0.94,0.25,0.08,4.0,3.0,5.0,nga
134.0,36.0,137.0,35.0,138.0,31.0,0.0,0.0,-0.94,0.25,0.08,4.0,2.0,6.0,nga
134.0,38.0,137.0,35.0,141.0,30.0,0.0,0.0,-0.94,0.26,0.09,4.0,1.0,5.0,nga
128.0,38.0,137.0,35.0,141.0,30.0,0.0,0.0,-0.94,0.26,0.09,3.0,0.0,4.0,nga
130.0,40.0,137.0,35.0,141.0,30.0,0.0,0.0,-0.94,0.27,0.1,3.0,0.0,3.0,nga
128.0,44.0,137.0,35.0,141.0,28.0,0.0,0.0,-0.93,0.27,0.1,2.0,-2.0,2.0,nga
128.0,36.0,136.0,37.0,138.0,28.0,0.0,0.0,-0.93,0.27,0.11,1.0,0.0,2.0,nga
128.0,36.0,136.0,37.0,141.0,28.0,0.0,0.0,-0.93,0.27,0.12,2.0,-2.0,1.0,nga
128.0,36.0,136.0,37.0,132.0,28.0,0.0,0.0,-0.92,0.27,0.12,2.0,0.0,2.0,nga
130.0,36.0,136.0,36.0,132.0,28.0,0.0,0.0,-0.92,0.28,0.12,2.0,1.0,1.0,nga
128.0,34.0,135.0,38.0,132.0,28.0,0.0,0.0,-0.92,0.28,0.12,1.0,1.0,0.0,nga
130.0,34.0,135.0,39.0,132.0,28.0,0.0,0.0,-0.92,0.29,0.12,0.0,3.0,0.0,nga
130.0,34.0,135.0,39.0,132.0,28.0,0.0,0.0,-0.91,0.29,0.12,-2.0,3.0,0.0,nga
130.0,32.0,135.0,39.0,132.0,27.0,0.0,0.0,-0.91,0.29,0.12,-3.0,6.0,0.0,nga
132.0,32.0,135.0,40.0,132.0,28.0,0.0,0.0,-0.92,0.29,0.11,-4.0,6.0,-2.0,nga
134.0,32.0,135.0,39.0,132.0,28.0,0.0,0.0,-0.92,0.29,0.1,-5.0,9.0,-2.0,nga
136.0,40.0,135.0,41.0,132.0,27.0,0.0,0.0,-0.92,0.29,0.09,-6.0,9.0,-1.0,nga
134.0,42.0,135.0,42.0,135.0,28.0,0.0,0.0,-0.92,0.28,0.09,-5.0,10.0,0.0,nga
136.0,40.0,135.0,42.0,129.0,28.0,0.0,0.0,-0.92,0.29,0.08,-5.0,10.0,2.0,nga
134.0,42.0,135.0,42.0,132.0,28.0,0.0,0.0,-0.93,0.28,0.08,-3.0,9.0,4.0,nga
134.0,40.0,135.0,40.0,135.0,28.0,0.0,0.0,-0.93,0.28,0.07,-2.0,6.0,4.0,nga
136.0,40.0,134.0,40.0,135.0,28.0,0.0,0.0,-0.93,0.29,0.07,-2.0,6.0,3.0,nga
134.0,38.0,135.0,40.0,132.0,28.0,0.0,0.0,-0.93,0.29,0.06,-4.0,5.0,1.0,nga
136.0,38.0,135.0,40.0,132.0,28.0,0.0,0.0,-0.93,0.29,0.06,-5.0,4.0,0.0,nga
132.0,40.0,135.0,40.0,135.0,28.0,0.0,0.0,-0.93,0.28,0.06,-7.0,3.0,-2.0,nga
130.0,40.0,135.0,41.0,132.0,28.0,0.0,0.0,-0.93,0.28,0.06,-9.0,3.0,-3.0,nga
128.0,34.0,135.0,39.0,129.0,28.0,0.0,0.0,-0.94,0.27,0.07,-7.0,-1.0,-9.0,nga
136.0,36.0,135.0,38.0,129.0,28.0,0.0,0.0,-0.93,0.26,0.07,-6.0,-2.0,-12.0,nga
136.0,38.0,135.0,38.0,132.0,28.0,0.0,0.0,-0.94,0.25,0.08,-1.0,-8.0,-17.0,nga
136.0,38.0,135.0,38.0,132.0,28.0,0.0,0.0,-0.93,0.23,0.08,-2.0,-8.0,-20.0,nga
130.0,38.0,138.0,38.0,123.0,28.0,0.0,0.0,-0.94,0.22,0.1,2.0,-7.0,-19.0,nga
128.0,40.0,138.0,38.0,120.0,30.0,0.0,0.0,-0.94,0.21,0.11,7.0,-9.0,-16.0,nga
130.0,42.0,138.0,38.0,117.0,28.0,0.0,0.0,-0.94,0.21,0.12,12.0,-9.0,-11.0,nga
128.0,44.0,138.0,38.0,114.0,30.0,0.0,0.0,-0.94,0.21,0.12,17.0,-10.0,-4.0,nga
128.0,40.0,138.0,38.0,117.0,30.0,0.0,0.0,-0.94,0.21,0.13,18.0,-4.0,2.0,nga
128.0,42.0,138.0,38.0,117.0,28.0,0.0,0.0,-0.93,0.22,0.13,19.0,-3.0,6.0,nga
124.0,42.0,137.0,37.0,120.0,30.0,0.0,0.0,-0.92,0.23,0.13,13.0,7.0,13.0,nga
118.0,30.0,138.0,37.0,120.0,30.0,0.0,0.0,-0.92,0.25,0.12,6.0,12.0,16.0,nga
118.0,30.0,138.0,38.0,120.0,28.0,0.0,0.0,-0.92,0.26,0.11,-5.0,21.0,16.0,nga
116.0,30.0,138.0,38.0,123.0,28.0,0.0,0.0,-0.92,0.28,0.1,-12.0,22.0,12.0,nga
124.0,30.0,136.0,38.0,123.0,28.0,0.0,0.0,-0.92,0.28,0.09,-19.0,22.0,7.0,nga
122.0,26.0,136.0,38.0,129.0,28.0,0.0,0.0,-0.92,0.29,0.08,-25.0,21.0,0.0,nga
122.0,26.0,136.0,39.0,129.0,30.0,0.0,0.0,-0.92,0.28,0.06,-29.0,19.0,-5.0,nga
118.0,24.0,136.0,39.0,132.0,28.0,0.0,0.0,-0.94,0.26,0.06,-31.0,14.0,-12.0,nga
122.0,24.0,137.0,39.0,129.0,30.0,0.0,0.0,-0.93,0.26,0.05,-29.0,7.0,-16.0,nga
122.0,24.0,137.0,40.0,129.0,30.0,0.0,0.0,-0.95,0.23,0.07,-22.0,-2.0,-18.0,nga
124.0,22.0,137.0,40.0,126.0,30.0,0.0,0.0,-0.94,0.22,0.08,-11.0,-11.0,-17.0,nga
122.0,34.0,137.0,42.0,126.0,30.0,0.0,0.0,-0.93,0.21,0.1,-1.0,-17.0,-15.0,nga
120.0,34.0,137.0,41.0,126.0,31.0,0.0,0.0,-0.93,0.21,0.12,11.0,-18.0,-9.0,nga
124.0,24.0,137.0,42.0,123.0,30.0,0.0,0.0,-0.93,0.2,0.13,19.0,-15.0,-2.0,nga
120.0,24.0,137.0,42.0,126.0,30.0,0.0,0.0,-0.93,0.22,0.14,22.0,-7.0,5.0,nga
124.0,22.0,136.0,42.0,120.0,30.0,0.0,0.0,-0.93,0.23,0.13,21.0,1.0,10.0,nga
126.0,24.0,136.0,41.0,120.0,30.0,0.0,0.0,-0.93,0.25,0.14,16.0,8.0,11.0,nga
126.0,22.0,136.0,40.0,120.0,28.0,0.0,0.0,-0.92,0.25,0.13,11.0,16.0,13.0,nga
126.0,24.0,136.0,40.0,120.0,28.0,0.0,0.0,-0.93,0.27,0.13,5.0,19.0,11.0,nga
124.0,22.0,136.0,40.0,120.0,28.0,0.0,0.0,-0.92,0.28,0.11,0.0,24.0,9.0,nga
128.0,24.0,136.0,39.0,120.0,30.0,0.0,0.0,-0.93,0.29,0.1,-10.0,24.0,3.0,nga
126.0,24.0,136.0,38.0,123.0,30.0,0.0,0.0,-0.93,0.29,0.08,-16.0,22.0,-3.0,nga
124.0,26.0,136.0,39.0,120.0,30.0,0.0,0.0,-0.94,0.28,0.07,-21.0,16.0,-8.0,nga
124.0,36.0,136.0,38.0,123.0,30.0,0.0,0.0,-0.93,0.28,0.06,-20.0,8.0,-12.0,nga
124.0,36.0,136.0,37.0,120.0,31.0,0.0,0.0,-0.93,0.26,0.06,-18.0,4.0,-12.0,nga
122.0,42.0,136.0,37.0,123.0,30.0,0.0,0.0,-0.93,0.26,0.07,-12.0,0.0,-11.0,nga
120.0,44.0,136.0,38.0,123.0,31.0,0.0,0.0,-0.94,0.25,0.07,-5.0,-5.0,-7.0,nga
122.0,44.0,136.0,38.0,126.0,31.0,0.0,0.0,-0.94,0.25,0.08,3.0,-10.0,-5.0,nga
120.0,42.0,136.0,38.0,129.0,31.0,0.0,0.0,-0.94,0.24,0.09,11.0,-14.0,-3.0,nga
122.0,44.0,136.0,38.0,132.0,31.0,0.0,0.0,-0.95,0.24,0.1,12.0,-16.0,-5.0,nga
118.0,44.0,136.0,38.0,132.0,28.0,0.0,0.0,-0.94,0.24,0.11,15.0,-19.0,-4.0,nga
118.0,42.0,135.0,38.0,132.0,28.0,0.0,0.0,-0.94,0.25,0.12,15.0,-21.0,-7.0,nga
120.0,40.0,135.0,38.0,129.0,28.0,0.0,0.0,-0.94,0.25,0.14,11.0,-16.0,-7.0,nga
124.0,38.0,135.0,38.0,132.0,28.0,0.0,0.0,-0.94,0.26,0.16,2.0,-15.0,-12.0,nga
126.0,38.0,135.0,39.0,129.0,30.0,0.0,0.0,-0.94,0.25,0.18,-4.0,-12.0,-16.0,nga
126.0,40.0,135.0,39.0,129.0,30.0,0.0,0.0,-0.95,0.23,0.2,-14.0,-12.0,-20.0,nga
128.0,40.0,136.0,39.0,126.0,28.0,0.0,0.0,-0.93,0.21,0.22,-18.0,-6.0,-20.0,nga
128.0,40.0,136.0,39.0,126.0,28.0,0.0,0.0,-0.94,0.19,0.22,-24.0,4.0,-17.0,nga
128.0,40.0,136.0,39.0,120.0,30.0,0.0,0.0,-0.93,0.18,0.22,-27.0,14.0,-13.0,nga
130.0,38.0,136.0,40.0,117.0,30.0,0.0,0.0,-0.93,0.17,0.21,-26.0,22.0,-2.0,nga
132.0,38.0,137.0,40.0,120.0,28.0,0.0,0.0,-0.94,0.16,0.19,-20.0,27.0,6.0,nga
136.0,36.0,137.0,39.0,117.0,28.0,0.0,0.0,-0.93,0.15,0.17,-12.0,27.0,16.0,nga
136.0,38.0,137.0,39.0,120.0,28.0,0.0,0.0,-0.94,0.16,0.15,-4.0,24.0,21.0,nga
128.0,40.0,136.0,38.0,120.0,27.0,0.0,0.0,-0.94,0.16,0.12,6.0,20.0,26.0,nga
128.0,38.0,136.0,37.0,120.0,27.0,0.0,0.0,-0.95,0.17,0.11,13.0,12.0,27.0,nga
126.0,34.0,137.0,36.0,117.0,27.0,0.0,0.0,-0.94,0.2,0.08,23.0,4.0,28.0,nga
124.0,32.0,136.0,36.0,117.0,28.0,0.0,0.0,-0.96,0.22,0.08,31.0,-6.0,22.0,nga
124.0,32.0,135.0,36.0,114.0,28.0,0.0,0.0,-0.94,0.24,0.07,30.0,-19.0,15.0,nga
124.0,32.0,134.0,34.0,111.0,28.0,0.0,0.0,-0.95,0.25,0.1,30.0,-31.0,4.0,nga
124.0,32.0,134.0,34.0,111.0,28.0,0.0,0.0,-0.94,0.24,0.12,21.0,-36.0,-5.0,nga
120.0,32.0,134.0,35.0,102.0,30.0,0.0,0.0,-0.93,0.24,0.15,14.0,-40.0,-18.0,nga
118.0,30.0,134.0,35.0,105.0,30.0,0.0,0.0,-0.94,0.22,0.18,2.0,-30.0,-24.0,nga
118.0,30.0,134.0,36.0,102.0,30.0,0.0,0.0,-0.93,0.2,0.21,-8.0,-27.0,-32.0,nga
122.0,28.0,135.0,38.0,99.0,31.0,0.0,0.0,-0.93,0.17,0.23,-21.0,-10.0,-34.0,nga
120.0,30.0,135.0,39.0,105.0,31.0,0.0,0.0,-0.92,0.14,0.23,-29.0,-3.0,-32.0,nga
122.0,30.0,133.0,39.0,102.0,31.0,0.0,0.0,-0.93,0.11,0.23,-36.0,11.0,-27.0,nga
124.0,32.0,134.0,40.0,108.0,31.0,0.0,0.0,-0.93,0.1,0.22,-40.0,17.0,-18.0,nga
124.0,32.0,136.0,40.0,111.0,31.0,0.0,0.0,-0.95,0.08,0.22,-36.0,26.0,-8.0,nga
122.0,32.0,136.0,42.0,111.0,31.0,0.0,0.0,-0.94,0.07,0.19,-35.0,33.0,4.0,nga
122.0,34.0,137.0,43.0,123.0,31.0,0.0,0.0,-0.95,0.07,0.18,-24.0,30.0,11.0,nga
126.0,34.0,136.0,42.0,129.0,31.0,0.0,0.0,-0.94,0.08,0.15,-17.0,29.0,20.0,nga
124.0,38.0,135.0,42.0,129.0,31.0,0.0,0.0,-0.95,0.1,0.12,-8.0,18.0,23.0,nga
124.0,36.0,134.0,42.0,129.0,31.0,0.0,0.0,-0.96,0.12,0.11,0.0,17.0,29.0,nga
118.0,40.0,133.0,40.0,132.0,31.0,0.0,0.0,-0.96,0.15,0.1,18.0,0.0,30.0,nga
118.0,40.0,134.0,40.0,132.0,31.0,0.0,0.0,-0.97,0.17,0.1,26.0,-3.0,28.0,nga
118.0,40.0,135.0,40.0,132.0,31.0,0.0,0.0,-0.95,0.22,0.1,32.0,-17.0,25.0,nga
116.0,40.0,134.0,40.0,135.0,31.0,0.0,0.0,-0.95,0.23,0.11,32.0,-24.0,16.0,nga
118.0,38.0,135.0,41.0,135.0,31.0,0.0,0.0,-0.93,0.25,0.12,29.0,-33.0,8.0,nga
116.0,40.0,134.0,40.0,135.0,30.0,0.0,0.0,-0.94,0.24,0.16,28.0,-37.0,-3.0,nga
118.0,40.0,134.0,40.0,126.0,30.0,0.0,0.0,-0.93,0.25,0.16,19.0,-34.0,-8.0,nga
118.0,40.0,135.0,42.0,129.0,30.0,0.0,0.0,-0.95,0.23,0.2,11.0,-32.0,-15.0,nga
118.0,40.0,135.0,43.0,129.0,30.0,0.0,0.0,-0.93,0.22,0.22,0.0,-22.0,-17.0,nga
118.0,40.0,137.0,45.0,129.0,30.0,0.0,0.0,-0.92,0.21,0.24,-10.0,-23.0,-20.0,nga
122.0,38.0,137.0,46.0,129.0,30.0,0.0,0.0,-0.92,0.17,0.26,-24.0,-11.0,-19.0,nga
120.0,50.0,137.0,47.0,123.0,30.0,0.0,0.0,-0.91,0.16,0.26,-34.0,-7.0,-17.0,nga
118.0,48.0,137.0,48.0,120.0,31.0,0.0,0.0,-0.94,0.12,0.27,-38.0,5.0,-13.0,nga
122.0,48.0,138.0,49.0,120.0,31.0,0.0,0.0,-0.92,0.1,0.26,-41.0,15.0,-3.0,nga
122.0,48.0,137.0,50.0,117.0,31.0,0.0,0.0,-0.94,0.09,0.26,-37.0,22.0,4.0,nga
122.0,48.0,137.0,51.0,117.0,33.0,0.0,0.0,-0.93,0.1,0.23,-33.0,25.0,14.0,nga
124.0,48.0,138.0,51.0,117.0,33.0,0.0,0.0,-0.94,0.1,0.23,-24.0,23.0,19.0,nga
124.0,50.0,138.0,49.0,114.0,31.0,0.0,0.0,-0.93,0.11,0.2,-15.0,20.0,25.0,nga
128.0,50.0,138.0,48.0,117.0,31.0,0.0,0.0,-0.94,0.13,0.19,-4.0,14.0,29.0,nga
128.0,50.0,138.0,46.0,114.0,31.0,0.0,0.0,-0.94,0.15,0.17,7.0,7.0,31.0,nga
128.0,50.0,138.0,45.0,117.0,31.0,0.0,0.0,-0.94,0.19,0.16,13.0,0.0,28.0,nga
132.0,38.0,138.0,45.0,120.0,31.0,0.0,0.0,-0.93,0.22,0.16,27.0,-16.0,21.0,nga
130.0,40.0,138.0,43.0,120.0,30.0,0.0,0.0,-0.93,0.24,0.17,29.0,-22.0,11.0,nga
130.0,40.0,138.0,42.0,117.0,30.0,0.0,0.0,-0.9,0.27,0.19,32.0,-36.0,4.0,nga
128.0,42.0,138.0,42.0,117.0,30.0,0.0,0.0,-0.91,0.27,0.22,27.0,-37.0,-6.0,nga
128.0,42.0,138.0,42.0,114.0,30.0,0.0,0.0,-0.9,0.27,0.24,21.0,-38.0,-13.0,nga
122.0,40.0,137.0,43.0,114.0,30.0,0.0,0.0,-0.91,0.25,0.27,12.0,-34.0,-19.0,nga
120.0,38.0,137.0,44.0,114.0,31.0,0.0,0.0,-0.9,0.24,0.29,2.0,-27.0,-22.0,nga
118.0,38.0,137.0,45.0,111.0,31.0,0.0,0.0,-0.9,0.2,0.31,-5.0,-25.0,-25.0,nga
116.0,38.0,136.0,46.0,111.0,31.0,0.0,0.0,-0.89,0.19,0.34,-14.0,-17.0,-26.0,nga
116.0,38.0,136.0,48.0,111.0,33.0,0.0,0.0,-0.89,0.14,0.35,-17.0,-10.0,-24.0,nga
112.0,42.0,137.0,49.0,111.0,33.0,0.0,0.0,-0.89,0.1,0.37,-24.0,3.0,-18.0,nga
114.0,42.0,137.0,51.0,111.0,33.0,0.0,0.0,-0.89,0.08,0.36,-24.0,7.0,-13.0,nga
104.0,42.0,137.0,51.0,114.0,34.0,0.0,0.0,-0.92,0.04,0.36,-22.0,17.0,-13.0,nga
104.0,38.0,137.0,52.0,114.0,34.0,0.0,0.0,-0.91,0.03,0.35,-10.0,17.0,-7.0,nga
108.0,40.0,137.0,52.0,114.0,34.0,0.0,0.0,-0.93,0.01,0.33,-3.0,21.0,-2.0,nga
112.0,42.0,137.0,52.0,114.0,34.0,0.0,0.0,-0.91,0.03,0.31,8.0,20.0,4.0,nga
124.0,44.0,137.0,52.0,111.0,34.0,0.0,0.0,-0.92,0.03,0.28,14.0,21.0,10.0,nga
124.0,42.0,137.0,52.0,111.0,34.0,0.0,0.0,-0.92,0.06,0.26,15.0,25.0,18.0,nga
124.0,40.0,137.0,51.0,111.0,34.0,0.0,0.0,-0.94,0.07,0.24,16.0,30.0,22.0,nga
128.0,40.0,138.0,49.0,111.0,34.0,0.0,0.0,-0.93,0.11,0.21,11.0,32.0,24.0,nga
128.0,40.0,137.0,49.0,114.0,34.0,0.0,0.0,-0.95,0.13,0.18,6.0,35.0,23.0,nga
130.0,38.0,137.0,48.0,111.0,34.0,0.0,0.0,-0.95,0.15,0.15,2.0,36.0,23.0,nga
132.0,40.0,137.0,46.0,114.0,33.0,0.0,0.0,-0.95,0.18,0.12,-1.0,37.0,24.0,nga
132.0,40.0,137.0,45.0,114.0,31.0,0.0,0.0,-0.95,0.19,0.09,-12.0,40.0,22.0,nga
132.0,40.0,137.0,42.0,117.0,31.0,0.0,0.0,-0.95,0.22,0.07,-16.0,37.0,21.0,nga
130.0,40.0,137.0,42.0,120.0,31.0,0.0,0.0,-0.95,0.23,0.05,-22.0,37.0,22.0,nga
120.0,38.0,137.0,41.0,123.0,31.0,0.0,0.0,-0.95,0.25,0.03,-22.0,37.0,22.0,nga
118.0,40.0,137.0,40.0,126.0,30.0,0.0,0.0,-0.94,0.27,-0.0,-20.0,34.0,19.0,nga
122.0,42.0,138.0,40.0,126.0,30.0,0.0,0.0,-0.93,0.29,-0.02,-17.0,30.0,20.0,nga
118.0,44.0,138.0,40.0,135.0,30.0,0.0,0.0,-0.94,0.29,-0.03,-11.0,22.0,16.0,nga
122.0,44.0,138.0,39.0,135.0,28.0,0.0,0.0,-0.91,0.31,-0.05,-8.0,17.0,15.0,nga
120.0,44.0,138.0,40.0,141.0,27.0,0.0,0.0,-0.91,0.33,-0.06,-7.0,11.0,8.0,nga
128.0,42.0,138.0,40.0,138.0,27.0,0.0,0.0,-0.91,0.34,-0.06,-6.0,7.0,5.0,nga
128.0,42.0,138.0,40.0,141.0,28.0,0.0,0.0,-0.9,0.35,-0.06,-7.0,0.0,0.0,nga
126.0,42.0,139.0,42.0,141.0,28.0,0.0,0.0,-0.91,0.34,-0.05,-10.0,-1.0,-8.0,nga
128.0,42.0,138.0,42.0,138.0,28.0,0.0,0.0,-0.89,0.33,-0.06,-12.0,-6.0,-15.0,nga
128.0,44.0,136.0,42.0,138.0,28.0,0.0,0.0,-0.91,0.3,-0.04,-14.0,-8.0,-25.0,nga
130.0,42.0,135.0,42.0,141.0,28.0,0.0,0.0,-0.9,0.28,-0.03,-16.0,-8.0,-31.0,nga
130.0,44.0,135.0,43.0,135.0,30.0,0.0,0.0,-0.92,0.24,-0.02,-17.0,-12.0,-38.0,nga
130.0,44.0,134.0,43.0,126.0,30.0,0.0,0.0,-0.92,0.22,-0.01,-17.0,-10.0,-38.0,nga
130.0,42.0,135.0,44.0,123.0,30.0,0.0,0.0,-0.93,0.18,0.0,-16.0,-11.0,-39.0,nga
130.0,42.0,134.0,45.0,123.0,31.0,0.0,0.0,-0.93,0.15,0.02,-13.0,-8.0,-30.0,nga
132.0,42.0,134.0,45.0,123.0,33.0,0.0,0.0,-0.94,0.13,0.03,-10.0,-6.0,-22.0,nga
128.0,44.0,134.0,46.0,120.0,33.0,0.0,0.0,-0.95,0.11,0.02,-5.0,1.0,-10.0,nga
130.0,42.0,134.0,46.0,120.0,31.0,0.0,0.0,-0.94,0.12,0.02,0.0,0.0,2.0,nga
130.0,42.0,134.0,46.0,117.0,31.0,0.0,0.0,-0.96,0.12,0.03,3.0,7.0,11.0,nga
130.0,40.0,135.0,45.0,111.0,31.0,0.0,0.0,-0.95,0.14,0.02,5.0,9.0,20.0,nga
128.0,42.0,137.0,45.0,108.0,31.0,0.0,0.0,-0.96,0.15,0.03,8.0,10.0,25.0,nga
126.0,42.0,137.0,45.0,114.0,31.0,0.0,0.0,-0.94,0.18,0.02,8.0,11.0,30.0,nga
124.0,42.0,137.0,45.0,114.0,31.0,0.0,0.0,-0.94,0.21,0.01,10.0,8.0,31.0,nga
122.0,44.0,137.0,44.0,114.0,31.0,0.0,0.0,-0.93,0.25,0.01,7.0,3.0,31.0,nga
120.0,44.0,137.0,43.0,114.0,31.0,0.0,0.0,-0.93,0.27,0.01,6.0,-1.0,28.0,nga
120.0,44.0,137.0,43.0,114.0,31.0,0.0,0.0,-0.92,0.29,0.0,2.0,-6.0,22.0,nga
122.0,46.0,138.0,42.0,108.0,31.0,0.0,0.0,-0.91,0.31,0.02,1.0,-5.0,17.0,nga
122.0,46.0,138.0,42.0,108.0,33.0,0.0,0.0,-0.91,0.32,0.03,-2.0,-5.0,12.0,nga
120.0,48.0,138.0,42.0,111.0,33.0,0.0,0.0,-0.9,0.33,0.04,-2.0,-7.0,9.0,nga
120.0,46.0,138.0,42.0,117.0,33.0,0.0,0.0,-0.91,0.33,0.05,-2.0,-9.0,3.0,nga
120.0,46.0,137.0,42.0,117.0,31.0,0.0,0.0,-0.9,0.33,0.05,0.0,-10.0,-2.0,nga
122.0,46.0,138.0,43.0,117.0,31.0,0.0,0.0,-0.9,0.33,0.06,-2.0,-11.0,-7.0,nga
124.0,44.0,138.0,43.0,117.0,31.0,0.0,0.0,-0.92,0.32,0.07,-3.0,-8.0,-13.0,nga
126.0,44.0,138.0,44.0,117.0,31.0,0.0,0.0,-0.92,0.3,0.09,0.0,-8.0,-13.0,nga
130.0,46.0,138.0,45.0,117.0,31.0,0.0,0.0,-0.93,0.29,0.1,0.0,-7.0,-18.0,nga
124.0,50.0,138.0,45.0,117.0,30.0,0.0,0.0,-0.93,0.27,0.1,0.0,-5.0,-19.0,nga
124.0,48.0,137.0,44.0,123.0,31.0,0.0,0.0,-0.93,0.25,0.11,-2.0,-8.0,-21.0,nga
120.0,46.0,138.0,45.0,120.0,31.0,0.0,0.0,-0.93,0.24,0.11,-3.0,-8.0,-21.0,nga
120.0,46.0,138.0,44.0,123.0,31.0,0.0,0.0,-0.94,0.22,0.12,-4.0,-8.0,-20.0,nga
130.0,42.0,138.0,45.0,117.0,31.0,0.0,0.0,-0.94,0.2,0.12,-3.0,-5.0,-14.0,nga
128.0,42.0,138.0,45.0,114.0,33.0,0.0,0.0,-0.95,0.2,0.13,-2.0,-4.0,-7.0,nga
130.0,42.0,138.0,43.0,114.0,31.0,0.0,0.0,-0.94,0.19,0.13,2.0,1.0,2.0,nga
128.0,42.0,137.0,43.0,114.0,31.0,0.0,0.0,-0.94,0.2,0.13,4.0,1.0,9.0,nga
130.0,42.0,138.0,43.0,111.0,31.0,0.0,0.0,-0.93,0.2,0.12,4.0,4.0,10.0,nga
110.0,42.0,138.0,43.0,114.0,31.0,0.0,0.0,-0.94,0.21,0.13,7.0,5.0,10.0,nga
108.0,38.0,137.0,42.0,114.0,31.0,0.0,0.0,-0.94,0.22,0.12,13.0,5.0,11.0,nga
108.0,38.0,137.0,42.0,114.0,31.0,0.0,0.0,-0.94,0.24,0.11,21.0,3.0,10.0,nga
110.0,38.0,137.0,43.0,114.0,31.0,0.0,0.0,-0.94,0.25,0.1,27.0,1.0,10.0,nga
112.0,38.0,137.0,42.0,111.0,31.0,0.0,0.0,-0.93,0.26,0.09,30.0,-1.0,9.0,nga
108.0,44.0,137.0,42.0,120.0,31.0,0.0,0.0,-0.93,0.27,0.09,33.0,-5.0,5.0,nga
110.0,44.0,138.0,42.0,117.0,31.0,0.0,0.0,-0.93,0.28,0.08,34.0,-9.0,2.0,nga
108.0,42.0,137.0,42.0,117.0,31.0,0.0,0.0,-0.93,0.29,0.09,35.0,-11.0,-2.0,nga
106.0,40.0,137.0,42.0,117.0,31.0,0.0,0.0,-0.92,0.3,0.09,39.0,-13.0,-2.0,nga
106.0,40.0,137.0,42.0,117.0,31.0,0.0,0.0,-0.93,0.31,0.09,40.0,-10.0,0.0,nga
122.0,40.0,136.0,42.0,117.0,30.0,0.0,0.0,-0.91,0.32,0.08,39.0,-8.0,6.0,nga
128.0,40.0,137.0,42.0,114.0,30.0,0.0,0.0,-0.91,0.33,0.08,33.0,-6.0,6.0,nga
128.0,40.0,137.0,43.0,114.0,30.0,0.0,0.0,-0.91,0.33,0.09,28.0,-4.0,7.0,nga
128.0,38.0,137.0,42.0,114.0,30.0,0.0,0.0,-0.91,0.34,0.09,21.0,-3.0,5.0,nga
130.0,34.0,137.0,43.0,114.0,30.0,0.0,0.0,-0.9,0.35,0.09,13.0,-2.0,3.0,nga
120.0,30.0,136.0,43.0,111.0,28.0,0.0,0.0,-0.91,0.35,0.09,7.0,0.0,1.0,nga
124.0,32.0,136.0,42.0,114.0,28.0,0.0,0.0,-0.91,0.34,0.09,-4.0,2.0,-2.0,nga
122.0,32.0,136.0,40.0,114.0,28.0,0.0,0.0,-0.91,0.35,0.09,-12.0,2.0,-3.0,nga
124.0,34.0,135.0,40.0,114.0,28.0,0.0,0.0,-0.91,0.33,0.1,-20.0,3.0,-5.0,nga
124.0,34.0,135.0,40.0,114.0,28.0,0.0,0.0,-0.91,0.33,0.1,-26.0,3.0,-7.0,nga
126.0,32.0,135.0,41.0,111.0,28.0,0.0,0.0,-0.91,0.3,0.1,-30.0,3.0,-8.0,nga
126.0,42.0,135.0,40.0,111.0,30.0,0.0,0.0,-0.91,0.3,0.11,-34.0,3.0,-9.0,nga
124.0,42.0,135.0,40.0,111.0,30.0,0.0,0.0,-0.91,0.28,0.12,-35.0,2.0,-10.0,nga
128.0,44.0,135.0,42.0,111.0,30.0,0.0,0.0,-0.91,0.27,0.13,-38.0,3.0,-10.0,nga
126.0,48.0,135.0,42.0,111.0,30.0,0.0,0.0,-0.92,0.26,0.15,-37.0,4.0,-9.0,nga
130.0,50.0,135.0,43.0,111.0,31.0,0.0,0.0,-0.92,0.24,0.16,-38.0,5.0,-10.0,nga
128.0,52.0,135.0,45.0,105.0,31.0,0.0,0.0,-0.92,0.23,0.16,-31.0,5.0,-9.0,nga
132.0,52.0,136.0,48.0,105.0,31.0,0.0,0.0,-0.93,0.21,0.17,-29.0,6.0,-9.0,nga
134.0,52.0,136.0,49.0,96.0,33.0,0.0,0.0,-0.93,0.21,0.17,-25.0,6.0,-8.0,nga
130.0,52.0,137.0,51.0,99.0,33.0,2.0,0.0,-0.94,0.2,0.18,-22.0,7.0,-7.0,nga
134.0,52.0,137.0,52.0,99.0,33.0,2.0,0.0,-0.94,0.2,0.18,-20.0,7.0,-6.0,nga
132.0,44.0,137.0,52.0,102.0,33.0,4.0,0.0,-0.94,0.19,0.18,-15.0,7.0,-4.0,nga
132.0,44.0,137.0,52.0,102.0,34.0,0.0,0.0,-0.95,0.19,0.17,-14.0,8.0,-3.0,nga
128.0,42.0,137.0,52.0,105.0,34.0,0.0,0.0,-0.95,0.18,0.17,-8.0,7.0,-1.0,nga
130.0,44.0,138.0,52.0,108.0,33.0,0.0,0.0,-0.95,0.18,0.16,-5.0,7.0,0.0,nga
130.0,44.0,138.0,52.0,108.0,33.0,0.0,0.0,-0.95,0.18,0.16,1.0,6.0,1.0,nga
128.0,44.0,138.0,52.0,114.0,33.0,0.0,0.0,-0.95,0.18,0.15,4.0,5.0,2.0,nga
132.0,42.0,137.0,51.0,111.0,33.0,0.0,0.0,-0.95,0.19,0.15,10.0,4.0,3.0,nga
130.0,44.0,137.0,51.0,123.0,33.0,0.0,0.0,-0.95,0.19,0.15,14.0,4.0,3.0,nga
132.0,42.0,136.0,50.0,117.0,33.0,0.0,0.0,-0.95,0.2,0.14,18.0,3.0,4.0,nga
132.0,44.0,136.0,49.0,120.0,33.0,0.0,0.0,-0.94,0.21,0.13,18.0,4.0,5.0,nga
134.0,44.0,137.0,48.0,117.0,33.0,0.0,0.0,-0.94,0.22,0.13,18.0,3.0,4.0,nga
138.0,42.0,136.0,48.0,117.0,33.0,0.0,0.0,-0.94,0.23,0.13,12.0,3.0,3.0,nga
134.0,44.0,137.0,48.0,114.0,33.0,0.0,0.0,-0.93,0.24,0.13,8.0,0.0,1.0,nga
136.0,40.0,137.0,48.0,111.0,33.0,0.0,0.0,-0.94,0.24,0.13,3.0,0.0,-2.0,nga
134.0,42.0,137.0,48.0,114.0,33.0,0.0,0.0,-0.94,0.24,0.13,0.0,0.0,-3.0,nga
136.0,40.0,137.0,47.0,114.0,33.0,0.0,0.0,-0.94,0.23,0.13,-5.0,0.0,-4.0,nga
128.0,40.0,137.0,46.0,111.0,33.0,0.0,0.0,-0.94,0.23,0.13,-9.0,-1.0,-6.0,nga
124.0,38.0,137.0,46.0,111.0,36.0,0.0,0.0,-0.94,0.22,0.13,-14.0,0.0,-8.0,nga
124.0,36.0,139.0,45.0,108.0,36.0,0.0,0.0,-0.94,0.21,0.14,-18.0,-3.0,-10.0,nga
122.0,38.0,139.0,45.0,111.0,36.0,0.0,0.0,-0.94,0.19,0.15,-19.0,-2.0,-11.0,nga
130.0,36.0,138.0,46.0,111.0,36.0,0.0,0.0,-0.94,0.18,0.15,-20.0,-2.0,-11.0,nga
124.0,38.0,139.0,46.0,114.0,36.0,0.0,0.0,-0.95,0.17,0.15,-15.0,0.0,-9.0,nga
126.0,36.0,138.0,48.0,111.0,36.0,0.0,0.0,-0.95,0.16,0.15,-13.0,3.0,-6.0,nga
128.0,38.0,138.0,48.0,114.0,36.0,0.0,0.0,-0.95,0.16,0.16,-10.0,2.0,-2.0,nga
126.0,46.0,138.0,49.0,114.0,36.0,0.0,0.0,-0.95,0.15,0.16,-11.0,4.0,0.0,nga
124.0,48.0,139.0,50.0,114.0,36.0,0.0,0.0,-0.94,0.15,0.16,-11.0,4.0,2.0,nga
130.0,50.0,139.0,51.0,117.0,36.0,0.0,0.0,-0.95,0.15,0.16,-13.0,5.0,3.0,nga
132.0,50.0,139.0,51.0,117.0,34.0,0.0,0.0,-0.95,0.15,0.16,-14.0,5.0,4.0,nga
132.0,52.0,138.0,52.0,120.0,34.0,0.0,0.0,-0.95,0.16,0.16,-17.0,7.0,5.0,nga
132.0,52.0,140.0,52.0,120.0,34.0,0.0,0.0,-0.95,0.16,0.16,-16.0,6.0,5.0,nga
126.0,54.0,140.0,52.0,120.0,34.0,0.0,0.0,-0.94,0.16,0.16,-16.0,5.0,4.0,nga
124.0,54.0,141.0,53.0,123.0,33.0,0.0,0.0,-0.94,0.16,0.17,-14.0,3.0,3.0,nga
126.0,54.0,142.0,51.0,120.0,34.0,0.0,0.0,-0.95,0.16,0.17,-12.0,3.0,2.0,nga
126.0,56.0,142.0,51.0,123.0,34.0,0.0,0.0,-0.95,0.17,0.17,-9.0,3.0,2.0,nga
128.0,44.0,142.0,51.0,123.0,34.0,0.0,0.0,-0.95,0.17,0.17,-7.0,4.0,2.0,nga
128.0,44.0,141.0,50.0,117.0,33.0,0.0,0.0,-0.94,0.18,0.17,-4.0,4.0,4.0,nga
112.0,46.0,143.0,50.0,117.0,33.0,0.0,0.0,-0.94,0.18,0.16,-1.0,6.0,6.0,nga
112.0,44.0,143.0,50.0,117.0,33.0,0.0,0.0,-0.93,0.2,0.15,1.0,7.0,9.0,nga
110.0,44.0,143.0,49.0,117.0,33.0,0.0,0.0,-0.93,0.2,0.15,6.0,9.0,11.0,nga
112.0,42.0,141.0,48.0,117.0,33.0,0.0,0.0,-0.93,0.21,0.14,7.0,8.0,11.0,nga
110.0,42.0,141.0,48.0,117.0,34.0,0.0,0.0,-0.93,0.23,0.14,7.0,6.0,10.0,nga
114.0,42.0,139.0,48.0,117.0,33.0,0.0,0.0,-0.93,0.23,0.14,7.0,4.0,8.0,nga
110.0,44.0,139.0,46.0,123.0,33.0,0.0,0.0,-0.92,0.24,0.13,7.0,3.0,6.0,nga
112.0,42.0,139.0,46.0,123.0,33.0,0.0,0.0,-0.92,0.25,0.13,6.0,1.0,2.0,nga
112.0,42.0,139.0,46.0,117.0,37.0,0.0,0.0,-0.92,0.25,0.13,4.0,0.0,-2.0,nga
110.0,42.0,138.0,45.0,123.0,37.0,0.0,0.0,-0.93,0.25,0.13,3.0,-3.0,-7.0,nga
126.0,42.0,137.0,45.0,123.0,39.0,0.0,0.0,-0.93,0.24,0.14,2.0,-4.0,-10.0,nga
126.0,42.0,137.0,45.0,126.0,37.0,0.0,0.0,-0.94,0.23,0.14,1.0,-6.0,-14.0,nga
128.0,42.0,137.0,45.0,123.0,37.0,0.0,0.0,-0.94,0.22,0.15,0.0,-7.0,-16.0,nga
128.0,44.0,137.0,46.0,126.0,37.0,0.0,0.0,-0.94,0.21,0.15,0.0,-6.0,-15.0,nga
128.0,44.0,137.0,46.0,126.0,37.0,0.0,0.0,-0.94,0.2,0.16,-2.0,-4.0,-13.0,nga
130.0,44.0,138.0,46.0,123.0,37.0,0.0,0.0,-0.94,0.19,0.16,-3.0,-2.0,-11.0,nga
128.0,44.0,137.0,48.0,117.0,37.0,0.0,0.0,-0.94,0.18,0.17,-3.0,-2.0,-10.0,nga
130.0,44.0,138.0,47.0,120.0,37.0,0.0,0.0,-0.94,0.17,0.17,-4.0,0.0,-9.0,nga
128.0,48.0,138.0,48.0,123.0,33.0,0.0,0.0,-0.94,0.16,0.18,-4.0,-3.0,-9.0,nga
126.0,48.0,138.0,48.0,123.0,33.0,0.0,0.0,-0.94,0.15,0.19,-5.0,-1.0,-7.0,nga
128.0,42.0,138.0,49.0,120.0,33.0,0.0,0.0,-0.94,0.14,0.19,-4.0,-4.0,-8.0,nga
126.0,42.0,138.0,49.0,117.0,33.0,0.0,0.0,-0.94,0.13,0.2,-5.0,-3.0,-7.0,nga
126.0,42.0,138.0,49.0,117.0,33.0,0.0,0.0,-0.94,0.13,0.2,-5.0,-5.0,-8.0,nga
124.0,42.0,138.0,49.0,120.0,33.0,0.0,0.0,-0.94,0.12,0.21,-5.0,-4.0,-8.0,nga
126.0,42.0,138.0,49.0,117.0,33.0,0.0,0.0,-0.94,0.11,0.21,-5.0,-4.0,-9.0,nga
124.0,40.0,139.0,49.0,117.0,33.0,0.0,0.0,-0.94,0.1,0.22,-4.0,-4.0,-9.0,nga
126.0,38.0,139.0,49.0,117.0,33.0,0.0,0.0,-0.94,0.09,0.22,-4.0,-4.0,-9.0,nga
124.0,36.0,138.0,50.0,117.0,33.0,0.0,0.0,-0.94,0.08,0.23,-3.0,-3.0,-7.0,nga
124.0,38.0,138.0,49.0,117.0,33.0,0.0,0.0,-0.94,0.08,0.23,-3.0,-2.0,-4.0,nga
126.0,38.0,138.0,49.0,117.0,33.0,0.0,0.0,-0.95,0.08,0.23,-1.0,0.0,0.0,nga
124.0,42.0,138.0,49.0,120.0,33.0,0.0,0.0,-0.95,0.08,0.23,0.0,3.0,5.0,nga
126.0,40.0,138.0,48.0,120.0,33.0,0.0,0.0,-0.95,0.09,0.22,1.0,6.0,10.0,nga
124.0,40.0,138.0,48.0,123.0,33.0,0.0,0.0,-0.94,0.1,0.22,3.0,7.0,13.0,nga
124.0,38.0,137.0,48.0,117.0,33.0,0.0,0.0,-0.93,0.11,0.22,6.0,7.0,14.0,nga
126.0,40.0,138.0,49.0,120.0,33.0,0.0,0.0,-0.94,0.12,0.21,15.0,9.0,14.0,nga
124.0,42.0,138.0,48.0,120.0,33.0,0.0,0.0,-0.93,0.14,0.2,23.0,9.0,14.0,nga
126.0,44.0,139.0,48.0,117.0,33.0,0.0,0.0,-0.93,0.16,0.19,30.0,10.0,14.0,nga
126.0,44.0,139.0,48.0,123.0,31.0,0.0,0.0,-0.93,0.18,0.17,35.0,10.0,14.0,nga
128.0,40.0,139.0,48.0,120.0,31.0,0.0,0.0,-0.93,0.19,0.16,40.0,11.0,12.0,nga
128.0,42.0,139.0,48.0,123.0,30.0,0.0,0.0,-0.93,0.22,0.14,42.0,8.0,9.0,nga
128.0,40.0,139.0,46.0,120.0,28.0,0.0,0.0,-0.93,0.23,0.13,46.0,7.0,5.0,nga
128.0,42.0,139.0,46.0,120.0,30.0,0.0,0.0,-0.93,0.24,0.11,47.0,4.0,2.0,nga
128.0,42.0,139.0,45.0,120.0,28.0,0.0,0.0,-0.94,0.25,0.09,49.0,3.0,0.0,nga
130.0,44.0,139.0,45.0,123.0,28.0,0.0,0.0,-0.94,0.25,0.08,47.0,3.0,0.0,nga
126.0,44.0,139.0,44.0,126.0,28.0,0.0,0.0,-0.94,0.26,0.07,39.0,2.0,-1.0,nga
128.0,44.0,139.0,45.0,123.0,28.0,0.0,0.0,-0.95,0.26,0.06,30.0,1.0,0.0,nga
126.0,44.0,137.0,45.0,123.0,28.0,0.0,0.0,-0.95,0.26,0.06,21.0,0.0,0.0,nga
122.0,44.0,137.0,44.0,120.0,28.0,0.0,0.0,-0.95,0.24,0.06,9.0,2.0,0.0,nga
124.0,44.0,136.0,43.0,120.0,28.0,0.0,0.0,-0.95,0.25,0.05,-3.0,1.0,0.0,nga
122.0,46.0,136.0,41.0,123.0,30.0,0.0,0.0,-0.95,0.24,0.06,-12.0,3.0,0.0,nga
126.0,46.0,135.0,42.0,120.0,30.0,0.0,0.0,-0.95,0.24,0.06,-27.0,2.0,-2.0,nga
126.0,46.0,136.0,42.0,120.0,30.0,0.0,0.0,-0.95,0.23,0.07,-34.0,3.0,-2.0,nga
126.0,46.0,136.0,43.0,117.0,31.0,0.0,0.0,-0.95,0.22,0.07,-46.0,6.0,-3.0,nga
126.0,46.0,136.0,43.0,114.0,31.0,0.0,0.0,-0.95,0.21,0.08,-50.0,6.0,-3.0,nga
126.0,44.0,135.0,43.0,111.0,31.0,0.0,0.0,-0.95,0.2,0.09,-53.0,7.0,-2.0,nga
128.0,42.0,135.0,43.0,114.0,31.0,0.0,0.0,-0.94,0.2,0.09,-53.0,7.0,-2.0,nga
138.0,44.0,135.0,43.0,114.0,31.0,0.0,0.0,-0.94,0.19,0.1,-51.0,5.0,-4.0,nga
142.0,40.0,136.0,43.0,111.0,33.0,0.0,0.0,-0.94,0.2,0.11,-45.0,5.0,-4.0,nga
140.0,44.0,136.0,45.0,114.0,33.0,0.0,0.0,-0.94,0.18,0.12,-38.0,4.0,-4.0,nga
140.0,40.0,136.0,47.0,111.0,33.0,0.0,0.0,-0.93,0.18,0.13,-34.0,3.0,-4.0,nga
136.0,40.0,136.0,46.0,111.0,33.0,0.0,0.0,-0.94,0.17,0.14,-25.0,4.0,-3.0,nga
134.0,40.0,136.0,45.0,114.0,33.0,0.0,0.0,-0.94,0.17,0.14,-21.0,3.0,-5.0,nga
136.0,40.0,136.0,45.0,114.0,33.0,0.0,0.0,-0.95,0.16,0.15,-14.0,0.0,-6.0,nga
134.0,42.0,137.0,46.0,114.0,33.0,0.0,0.0,-0.95,0.15,0.15,-14.0,-1.0,-7.0,nga
126.0,40.0,137.0,46.0,117.0,33.0,0.0,0.0,-0.95,0.15,0.15,-12.0,-2.0,-9.0,nga
122.0,44.0,137.0,46.0,120.0,33.0,0.0,0.0,-0.95,0.14,0.16,-13.0,-2.0,-10.0,nga
116.0,42.0,138.0,46.0,117.0,33.0,0.0,0.0,-0.95,0.14,0.16,-14.0,0.0,-9.0,nga
116.0,42.0,136.0,46.0,117.0,33.0,0.0,0.0,-0.95,0.13,0.17,-16.0,-2.0,-9.0,nga
116.0,42.0,136.0,45.0,117.0,33.0,0.0,0.0,-0.95,0.12,0.17,-16.0,0.0,-9.0,nga
114.0,38.0,137.0,45.0,114.0,33.0,0.0,0.0,-0.95,0.1,0.18,-17.0,-1.0,-10.0,nga
110.0,40.0,137.0,46.0,114.0,33.0,0.0,0.0,-0.95,0.09,0.18,-15.0,-2.0,-10.0,nga
96.0,42.0,140.0,46.0,114.0,33.0,0.0,0.0,-0.96,0.08,0.19,-13.0,-2.0,-9.0,nga
92.0,44.0,140.0,47.0,120.0,33.0,0.0,0.0,-0.95,0.08,0.19,-10.0,-2.0,-8.0,nga
94.0,44.0,140.0,47.0,120.0,33.0,0.0,0.0,-0.95,0.07,0.19,-7.0,-3.0,-10.0,nga
104.0,48.0,140.0,47.0,117.0,33.0,0.0,0.0,-0.94,0.06,0.2,-5.0,-5.0,-11.0,nga
102.0,48.0,140.0,47.0,114.0,33.0,0.0,0.0,-0.94,0.05,0.21,-3.0,-6.0,-13.0,nga
100.0,50.0,140.0,48.0,123.0,33.0,0.0,0.0,-0.95,0.04,0.22,1.0,-10.0,-16.0,nga
98.0,50.0,142.0,49.0,126.0,34.0,0.0,0.0,-0.95,0.02,0.23,1.0,-7.0,-15.0,nga
98.0,50.0,142.0,49.0,123.0,36.0,0.0,0.0,-0.95,0.01,0.24,2.0,-9.0,-15.0,nga
104.0,54.0,141.0,49.0,123.0,36.0,0.0,0.0,-0.95,0.0,0.25,3.0,-6.0,-10.0,nga
106.0,52.0,141.0,49.0,126.0,36.0,0.0,0.0,-0.94,-0.0,0.25,2.0,-5.0,-5.0,nga
124.0,48.0,137.0,52.0,123.0,37.0,0.0,0.0,-0.94,-0.0,0.26,0.0,0.0,0.0,nga
122.0,48.0,137.0,52.0,120.0,37.0,0.0,0.0,-0.94,0.0,0.26,0.0,2.0,6.0,nga
126.0,46.0,137.0,52.0,120.0,37.0,0.0,0.0,-0.94,0.01,0.26,1.0,6.0,14.0,nga
120.0,38.0,137.0,52.0,123.0,37.0,0.0,0.0,-0.95,0.02,0.26,1.0,9.0,20.0,nga
124.0,38.0,137.0,52.0,126.0,37.0,0.0,0.0,-0.94,0.04,0.24,2.0,12.0,27.0,nga
120.0,42.0,137.0,51.0,117.0,37.0,0.0,0.0,-0.94,0.07,0.23,2.0,17.0,33.0,nga
120.0,46.0,137.0,51.0,120.0,34.0,0.0,0.0,-0.94,0.1,0.22,3.0,16.0,37.0,nga
120.0,44.0,138.0,51.0,117.0,33.0,0.0,0.0,-0.93,0.14,0.21,3.0,18.0,39.0,nga
120.0,46.0,138.0,50.0,120.0,33.0,0.0,0.0,-0.93,0.17,0.2,4.0,15.0,37.0,nga
120.0,46.0,138.0,49.0,120.0,31.0,0.0,0.0,-0.93,0.21,0.19,6.0,15.0,35.0,nga
120.0,48.0,139.0,47.0,123.0,30.0,0.0,0.0,-0.92,0.24,0.18,7.0,13.0,32.0,nga
122.0,48.0,139.0,46.0,123.0,30.0,0.0,0.0,-0.91,0.27,0.16,6.0,12.0,28.0,nga
122.0,48.0,140.0,46.0,120.0,30.0,0.0,0.0,-0.9,0.3,0.15,5.0,10.0,24.0,nga
124.0,52.0,140.0,46.0,120.0,30.0,0.0,0.0,-0.9,0.32,0.15,4.0,8.0,19.0,nga
126.0,50.0,140.0,46.0,117.0,30.0,0.0,0.0,-0.9,0.34,0.15,3.0,6.0,13.0,nga
126.0,48.0,138.0,45.0,123.0,28.0,0.0,0.0,-0.89,0.34,0.14,1.0,4.0,6.0,nga
128.0,48.0,138.0,45.0,123.0,28.0,0.0,0.0,-0.89,0.35,0.15,1.0,2.0,0.0,nga
126.0,48.0,137.0,45.0,123.0,28.0,0.0,0.0,-0.9,0.35,0.15,-1.0,0.0,-8.0,nga
126.0,48.0,137.0,45.0,123.0,28.0,0.0,0.0,-0.9,0.34,0.15,-2.0,0.0,-14.0,nga
128.0,44.0,136.0,45.0,111.0,30.0,0.0,0.0,-0.91,0.33,0.15,-2.0,-2.0,-17.0,nga
126.0,42.0,136.0,45.0,114.0,30.0,0.0,0.0,-0.91,0.32,0.15,0.0,-2.0,-17.0,nga
126.0,42.0,135.0,45.0,114.0,31.0,0.0,0.0,-0.91,0.3,0.16,0.0,-4.0,-20.0,nga
124.0,38.0,135.0,45.0,111.0,28.0,0.0,0.0,-0.91,0.29,0.16,3.0,-6.0,-24.0,nga
126.0,32.0,135.0,45.0,108.0,28.0,0.0,0.0,-0.92,0.26,0.17,9.0,-8.0,-27.0,nga
124.0,32.0,135.0,46.0,111.0,30.0,0.0,0.0,-0.93,0.25,0.17,11.0,-6.0,-26.0,nga
126.0,24.0,137.0,46.0,111.0,28.0,0.0,0.0,-0.94,0.22,0.18,20.0,-6.0,-25.0,nga
130.0,22.0,136.0,46.0,108.0,30.0,0.0,0.0,-0.94,0.2,0.17,21.0,-2.0,-20.0,nga
118.0,20.0,136.0,45.0,105.0,30.0,0.0,0.0,-0.95,0.19,0.17,30.0,0.0,-17.0,nga
122.0,16.0,136.0,45.0,105.0,30.0,0.0,0.0,-0.94,0.17,0.16,33.0,0.0,-14.0,nga
118.0,22.0,137.0,45.0,117.0,30.0,0.0,0.0,-0.94,0.17,0.16,39.0,1.0,-14.0,nga
118.0,20.0,138.0,45.0,111.0,30.0,0.0,0.0,-0.94,0.15,0.16,43.0,0.0,-16.0,nga
122.0,20.0,138.0,44.0,111.0,28.0,0.0,0.0,-0.95,0.15,0.16,44.0,3.0,-13.0,nga
120.0,28.0,138.0,44.0,114.0,30.0,0.0,0.0,-0.97,0.14,0.15,47.0,6.0,-11.0,nga
122.0,32.0,138.0,43.0,111.0,30.0,0.0,0.0,-0.96,0.15,0.13,44.0,7.0,-5.0,nga
120.0,30.0,137.0,42.0,108.0,31.0,0.0,0.0,-0.96,0.15,0.12,44.0,6.0,-5.0,nga
122.0,36.0,137.0,42.0,105.0,31.0,0.0,0.0,-0.95,0.15,0.11,37.0,7.0,-2.0,nga
116.0,36.0,138.0,42.0,105.0,31.0,0.0,0.0,-0.96,0.16,0.11,38.0,4.0,-3.0,nga
126.0,38.0,138.0,42.0,105.0,31.0,0.0,0.0,-0.96,0.15,0.1,32.0,4.0,-2.0,nga
126.0,40.0,138.0,42.0,105.0,31.0,0.0,0.0,-0.96,0.16,0.1,30.0,4.0,-2.0,nga
122.0,38.0,137.0,42.0,105.0,31.0,0.0,0.0,-0.96,0.16,0.09,26.0,3.0,-1.0,nga
126.0,38.0,136.0,42.0,105.0,31.0,0.0,0.0,-0.96,0.17,0.08,18.0,4.0,0.0,nga
118.0,38.0,136.0,40.0,108.0,33.0,0.0,0.0,-0.96,0.17,0.08,15.0,2.0,-1.0,nga
120.0,36.0,136.0,40.0,105.0,33.0,0.0,0.0,-0.95,0.18,0.07,3.0,1.0,-2.0,nga
120.0,38.0,136.0,40.0,105.0,33.0,0.0,0.0,-0.96,0.18,0.08,-3.0,1.0,-2.0,nga
120.0,38.0,136.0,42.0,105.0,31.0,0.0,0.0,-0.96,0.17,0.08,-10.0,1.0,0.0,nga
122.0,36.0,136.0,42.0,108.0,30.0,0.0,0.0,-0.95,0.18,0.08,-15.0,0.0,0.0,nga
120.0,40.0,136.0,42.0,108.0,30.0,0.0,0.0,-0.95,0.17,0.08,-21.0,1.0,1.0,nga
122.0,38.0,135.0,42.0,108.0,30.0,0.0,0.0,-0.95,0.18,0.08,-32.0,2.0,2.0,nga
122.0,40.0,136.0,43.0,108.0,30.0,0.0,0.0,-0.95,0.18,0.09,-36.0,2.0,2.0,nga
126.0,38.0,136.0,42.0,105.0,30.0,0.0,0.0,-0.95,0.17,0.09,-46.0,3.0,2.0,nga
124.0,38.0,136.0,42.0,108.0,30.0,0.0,0.0,-0.95,0.17,0.11,-46.0,3.0,1.0,nga
124.0,36.0,135.0,43.0,108.0,30.0,0.0,0.0,-0.95,0.16,0.11,-49.0,5.0,1.0,nga
126.0,36.0,135.0,43.0,108.0,31.0,0.0,0.0,-0.95,0.16,0.12,-43.0,4.0,1.0,nga
126.0,36.0,136.0,44.0,111.0,30.0,0.0,0.0,-0.95,0.15,0.12,-42.0,4.0,-1.0,nga
128.0,36.0,135.0,43.0,108.0,31.0,0.0,0.0,-0.95,0.16,0.12,-34.0,2.0,-3.0,nga
124.0,38.0,135.0,44.0,111.0,30.0,0.0,0.0,-0.96,0.14,0.13,-31.0,3.0,-5.0,nga
126.0,36.0,136.0,43.0,111.0,30.0,0.0,0.0,-0.95,0.15,0.14,-28.0,1.0,-7.0,nga
122.0,38.0,136.0,43.0,114.0,30.0,0.0,0.0,-0.96,0.13,0.15,-20.0,0.0,-10.0,nga
120.0,38.0,136.0,44.0,114.0,30.0,0.0,0.0,-0.96,0.13,0.15,-17.0,0.0,-13.0,nga
120.0,38.0,136.0,45.0,114.0,30.0,0.0,0.0,-0.97,0.11,0.16,-10.0,-3.0,-15.0,nga
120.0,44.0,136.0,45.0,114.0,30.0,0.0,0.0,-0.96,0.09,0.17,-11.0,-6.0,-18.0,nga
122.0,42.0,136.0,46.0,111.0,30.0,0.0,0.0,-0.96,0.07,0.18,-7.0,-9.0,-20.0,nga
122.0,44.0,136.0,46.0,114.0,30.0,0.0,0.0,-0.97,0.05,0.19,-8.0,-9.0,-22.0,nga
122.0,42.0,136.0,46.0,111.0,27.0,0.0,0.0,-0.96,0.03,0.2,-5.0,-10.0,-22.0,nga
122.0,44.0,136.0,48.0,111.0,25.0,0.0,0.0,-0.96,0.01,0.21,-8.0,-9.0,-22.0,nga
122.0,44.0,136.0,48.0,111.0,27.0,0.0,0.0,-0.95,-0.01,0.22,-5.0,-8.0,-20.0,nga
124.0,44.0,136.0,49.0,108.0,28.0,0.0,0.0,-0.95,-0.03,0.22,-4.0,-6.0,-17.0,nga
126.0,42.0,137.0,49.0,105.0,28.0,0.0,0.0,-0.95,-0.04,0.23,-2.0,-4.0,-12.0,nga
128.0,42.0,137.0,50.0,105.0,28.0,0.0,0.0,-0.95,-0.05,0.24,-1.0,-1.0,-6.0,nga
126.0,44.0,136.0,50.0,105.0,28.0,0.0,0.0,-0.95,-0.05,0.24,0.0,0.0,2.0,nga
124.0,40.0,136.0,50.0,105.0,28.0,0.0,0.0,-0.96,-0.05,0.23,2.0,4.0,9.0,nga
122.0,42.0,136.0,50.0,111.0,28.0,0.0,0.0,-0.96,-0.03,0.23,1.0,5.0,17.0,nga
122.0,44.0,136.0,49.0,120.0,28.0,0.0,0.0,-0.95,-0.01,0.23,3.0,7.0,23.0,nga
124.0,44.0,136.0,49.0,120.0,33.0,0.0,0.0,-0.95,0.01,0.23,2.0,9.0,29.0,nga
126.0,44.0,136.0,48.0,123.0,33.0,0.0,0.0,-0.95,0.04,0.22,4.0,10.0,33.0,nga
126.0,42.0,136.0,47.0,123.0,33.0,0.0,0.0,-0.96,0.07,0.21,2.0,11.0,36.0,nga
126.0,42.0,136.0,47.0,123.0,33.0,0.0,0.0,-0.95,0.1,0.21,4.0,10.0,36.0,nga
126.0,40.0,135.0,46.0,126.0,33.0,0.0,0.0,-0.95,0.12,0.2,3.0,10.0,33.0,nga
126.0,46.0,134.0,46.0,126.0,33.0,0.0,0.0,-0.93,0.15,0.2,2.0,7.0,29.0,nga
126.0,46.0,134.0,45.0,126.0,33.0,0.0,0.0,-0.93,0.17,0.19,2.0,6.0,22.0,nga
130.0,46.0,134.0,45.0,129.0,33.0,0.0,0.0,-0.92,0.2,0.19,1.0,3.0,16.0,nga
128.0,48.0,134.0,45.0,126.0,33.0,0.0,0.0,-0.92,0.21,0.19,1.0,4.0,9.0,nga
128.0,48.0,135.0,46.0,120.0,31.0,0.0,0.0,-0.92,0.21,0.18,0.0,2.0,4.0,nga
126.0,50.0,135.0,45.0,120.0,31.0,0.0,0.0,-0.92,0.21,0.18,3.0,1.0,0.0,nga
124.0,48.0,135.0,46.0,117.0,31.0,0.0,0.0,-0.92,0.22,0.18,9.0,1.0,-2.0,nga
124.0,48.0,135.0,46.0,117.0,31.0,0.0,0.0,-0.92,0.21,0.17,18.0,0.0,-2.0,nga
124.0,50.0,135.0,45.0,120.0,30.0,0.0,0.0,-0.92,0.22,0.17,23.0,0.0,-4.0,nga
124.0,52.0,136.0,45.0,123.0,30.0,0.0,0.0,-0.92,0.21,0.16,32.0,-3.0,-5.0,nga
118.0,32.0,136.0,45.0,123.0,30.0,0.0,0.0,-0.93,0.21,0.15,37.0,-2.0,-4.0,nga
124.0,32.0,137.0,45.0,123.0,30.0,0.0,0.0,-0.93,0.22,0.14,43.0,-4.0,-4.0,nga
122.0,38.0,137.0,45.0,123.0,28.0,0.0,0.0,-0.94,0.22,0.13,47.0,-2.0,-2.0,nga
122.0,36.0,137.0,46.0,120.0,30.0,0.0,0.0,-0.93,0.23,0.12,48.0,-2.0,0.0,nga
126.0,32.0,137.0,46.0,111.0,31.0,0.0,0.0,-0.94,0.23,0.12,50.0,0.0,1.0,nga
124.0,34.0,137.0,46.0,114.0,30.0,4.0,0.0,-0.93,0.25,0.11,45.0,0.0,0.0,nga
126.0,34.0,137.0,46.0,114.0,30.0,4.0,0.0,-0.94,0.25,0.1,37.0,0.0,-1.0,nga
124.0,34.0,137.0,46.0,114.0,30.0,7.0,0.0,-0.94,0.28,0.09,19.0,1.0,-4.0,nga
124.0,32.0,137.0,46.0,114.0,30.0,9.0,0.0,-0.94,0.28,0.09,10.0,1.0,-4.0,nga
124.0,44.0,137.0,46.0,111.0,30.0,14.0,0.0,-0.94,0.29,0.09,-9.0,4.0,-4.0,nga
128.0,58.0,137.0,46.0,111.0,30.0,14.0,0.0,-0.94,0.3,0.09,-17.0,3.0,-4.0,nga
126.0,56.0,137.0,46.0,111.0,28.0,11.0,0.0,-0.95,0.27,0.09,-31.0,6.0,-1.0,nga
124.0,52.0,136.0,46.0,108.0,30.0,9.0,0.0,-0.94,0.27,0.09,-39.0,4.0,-1.0,nga
126.0,52.0,136.0,45.0,105.0,30.0,9.0,0.0,-0.94,0.26,0.1,-45.0,5.0,-1.0,nga
128.0,54.0,136.0,45.0,111.0,30.0,14.0,0.0,-0.93,0.27,0.1,-54.0,6.0,-2.0,nga
128.0,52.0,136.0,45.0,111.0,31.0,14.0,0.0,-0.93,0.25,0.11,-53.0,5.0,-3.0,nga
126.0,54.0,135.0,45.0,114.0,31.0,11.0,0.0,-0.94,0.24,0.12,-59.0,4.0,-4.0,nga
126.0,56.0,134.0,45.0,111.0,31.0,9.0,0.0,-0.94,0.22,0.13,-50.0,2.0,-4.0,nga
128.0,58.0,134.0,46.0,114.0,31.0,9.0,0.0,-0.94,0.2,0.14,-47.0,3.0,-4.0,nga
126.0,46.0,134.0,46.0,114.0,31.0,0.0,0.0,-0.94,0.19,0.15,-34.0,2.0,-1.0,nga
136.0,42.0,135.0,46.0,111.0,33.0,0.0,0.0,-0.94,0.18,0.15,-29.0,4.0,2.0,nga
134.0,44.0,134.0,46.0,111.0,33.0,0.0,0.0,-0.93,0.2,0.15,-21.0,5.0,5.0,nga
134.0,44.0,135.0,46.0,114.0,33.0,2.0,0.0,-0.94,0.2,0.15,-15.0,7.0,8.0,nga
134.0,42.0,135.0,46.0,117.0,33.0,4.0,0.0,-0.94,0.21,0.15,-10.0,7.0,11.0,nga
128.0,38.0,135.0,46.0,117.0,31.0,0.0,0.0,-0.94,0.22,0.15,-2.0,7.0,15.0,nga
132.0,36.0,136.0,46.0,120.0,31.0,0.0,0.0,-0.93,0.23,0.14,-2.0,7.0,15.0,nga
132.0,36.0,136.0,46.0,120.0,31.0,0.0,0.0,-0.93,0.25,0.15,3.0,6.0,14.0,nga
132.0,34.0,136.0,46.0,117.0,31.0,0.0,0.0,-0.93,0.26,0.15,2.0,6.0,11.0,nga
130.0,34.0,137.0,46.0,123.0,31.0,0.0,0.0,-0.91,0.28,0.14,0.0,4.0,8.0,nga
132.0,40.0,137.0,48.0,126.0,31.0,0.0,0.0,-0.92,0.28,0.14,-4.0,3.0,1.0,nga
124.0,42.0,137.0,48.0,126.0,31.0,0.0,0.0,-0.91,0.28,0.13,-8.0,2.0,-5.0,nga
122.0,40.0,136.0,49.0,126.0,31.0,0.0,0.0,-0.92,0.26,0.14,-9.0,0.0,-13.0,nga
126.0,40.0,136.0,49.0,123.0,31.0,0.0,0.0,-0.91,0.25,0.14,-11.0,-2.0,-18.0,nga
124.0,44.0,136.0,49.0,123.0,31.0,0.0,0.0,-0.92,0.23,0.15,-11.0,-4.0,-24.0,nga
124.0,48.0,137.0,50.0,117.0,33.0,0.0,0.0,-0.93,0.2,0.16,-12.0,-6.0,-28.0,nga
120.0,50.0,136.0,50.0,117.0,33.0,0.0,0.0,-0.93,0.18,0.17,-11.0,-6.0,-30.0,nga
122.0,50.0,134.0,51.0,117.0,33.0,0.0,0.0,-0.93,0.15,0.17,-11.0,-6.0,-31.0,nga
124.0,52.0,134.0,51.0,117.0,33.0,0.0,0.0,-0.94,0.12,0.18,-9.0,-7.0,-29.0,nga
122.0,52.0,135.0,51.0,120.0,33.0,0.0,0.0,-0.95,0.09,0.19,-8.0,-5.0,-27.0,nga
124.0,48.0,134.0,50.0,120.0,33.0,0.0,0.0,-0.95,0.07,0.2,-5.0,-5.0,-25.0,nga
124.0,48.0,133.0,50.0,117.0,31.0,0.0,0.0,-0.96,0.05,0.21,-3.0,-5.0,-23.0,nga
126.0,48.0,134.0,51.0,120.0,31.0,0.0,0.0,-0.95,0.03,0.22,-1.0,-4.0,-20.0,nga
124.0,48.0,134.0,51.0,120.0,31.0,0.0,0.0,-0.95,0.02,0.23,1.0,-3.0,-16.0,nga
124.0,46.0,134.0,51.0,117.0,33.0,0.0,0.0,-0.94,0.01,0.23,0.0,0.0,-11.0,nga
126.0,44.0,134.0,51.0,117.0,33.0,0.0,0.0,-0.94,0.0,0.23,3.0,1.0,-5.0,nga
124.0,44.0,133.0,50.0,117.0,31.0,0.0,0.0,-0.95,-0.0,0.23,3.0,3.0,2.0,nga
126.0,44.0,135.0,51.0,117.0,31.0,0.0,0.0,-0.95,0.01,0.24,6.0,4.0,7.0,nga
122.0,44.0,135.0,51.0,117.0,31.0,0.0,0.0,-0.95,0.01,0.24,6.0,7.0,14.0,nga
124.0,42.0,135.0,51.0,108.0,31.0,0.0,0.0,-0.95,0.03,0.23,9.0,7.0,18.0,nga
122.0,42.0,135.0,51.0,108.0,31.0,0.0,0.0,-0.95,0.06,0.22,8.0,9.0,23.0,nga
120.0,44.0,135.0,51.0,111.0,33.0,0.0,0.0,-0.94,0.08,0.21,10.0,9.0,28.0,nga
122.0,42.0,135.0,51.0,111.0,33.0,0.0,0.0,-0.94,0.11,0.21,10.0,11.0,31.0,nga
122.0,44.0,135.0,50.0,114.0,33.0,0.0,0.0,-0.94,0.14,0.2,10.0,10.0,32.0,nga
122.0,46.0,135.0,49.0,117.0,33.0,0.0,0.0,-0.94,0.17,0.19,11.0,10.0,31.0,nga
120.0,48.0,135.0,49.0,123.0,31.0,0.0,0.0,-0.93,0.2,0.18,9.0,9.0,29.0,nga
120.0,48.0,136.0,48.0,120.0,31.0,0.0,0.0,-0.92,0.23,0.17,8.0,8.0,25.0,nga
120.0,46.0,136.0,48.0,120.0,31.0,0.0,0.0,-0.92,0.25,0.17,6.0,8.0,22.0,nga
122.0,46.0,136.0,48.0,123.0,30.0,0.0,0.0,-0.91,0.27,0.16,5.0,6.0,17.0,nga
122.0,48.0,136.0,48.0,123.0,30.0,0.0,0.0,-0.91,0.28,0.16,2.0,6.0,12.0,nga
122.0,48.0,136.0,48.0,123.0,30.0,0.0,0.0,-0.91,0.29,0.16,1.0,4.0,6.0,nga
124.0,48.0,137.0,47.0,123.0,30.0,0.0,0.0,-0.91,0.29,0.16,0.0,2.0,1.0,nga
120.0,50.0,136.0,46.0,123.0,30.0,0.0,0.0,-0.91,0.3,0.15,-2.0,0.0,-6.0,nga
122.0,48.0,136.0,46.0,123.0,28.0,0.0,0.0,-0.92,0.29,0.16,-4.0,-1.0,-11.0,nga
